record_index,byte_offset,sample_seq,time_s,device_id,accel_x_raw,accel_x_g,accel_y_raw,accel_y_g,accel_z_raw,accel_z_g,gyro_x_raw,gyro_x_dps,gyro_y_raw,gyro_y_dps,gyro_z_raw,gyro_z_dps,mag_x_raw,mag_y_raw,mag_z_raw,angle_x_raw,angle_x_deg,angle_y_raw,angle_y_deg,angle_z_raw,angle_z_deg,battery_raw,battery_voltage
24,920,2345581,0.0115,0,0,0.0,-22,-0.0107421875,2099,1.02490234375,-5,-0.30517578125,-15,-0.91552734375,5,0.30517578125,-8263,-3943,104,-190,-1.043701171875,6,0.032958984375,-20934,-114.993896484375,403,4.03
36,1359,2345592,0.017,1,-8,-0.00390625,-16,-0.0078125,2058,1.0048828125,-1,-0.06103515625,-14,-0.8544921875,-1,-0.06103515625,-1401,-5256,-4155,-681,-3.7408447265625,-847,-4.6527099609375,-6620,-36.36474609375,407,4.07
46,1724,2345601,0.0215,0,0,0.0,-17,-0.00830078125,2102,1.0263671875,-5,-0.30517578125,-12,-0.732421875,6,0.3662109375,-8310,-3932,117,-190,-1.043701171875,6,0.032958984375,-20934,-114.993896484375,403,4.03
48,1793,2345602,0.022,1,-9,-0.00439453125,-21,-0.01025390625,2059,1.00537109375,-3,-0.18310546875,-14,-0.8544921875,-2,-0.1220703125,-1414,-5302,-4209,-678,-3.724365234375,-842,-4.625244140625,-6620,-36.36474609375,407,4.07
51,1899,2345604,0.023,2,6,0.0029296875,-21,-0.01025390625,2075,1.01318359375,-2,-0.1220703125,-4,-0.244140625,9,0.54931640625,-2928,5072,13358,-237,-1.3018798828125,-17,-0.0933837890625,25256,138.7353515625,409,4.09
62,2301,2345614,0.028,0,-1,-0.00048828125,-23,-0.01123046875,2101,1.02587890625,-6,-0.3662109375,-15,-0.91552734375,4,0.244140625,-8306,-3908,148,-190,-1.043701171875,6,0.032958984375,-20934,-114.993896484375,403,4.03
65,2407,2345616,0.029,1,-8,-0.00390625,-14,-0.0068359375,2058,1.0048828125,0,0.0,-13,-0.79345703125,-3,-0.18310546875,-1400,-5315,-4212,-675,-3.7078857421875,-838,-4.603271484375,-6620,-36.36474609375,407,4.07
68,2513,2345618,0.03,2,5,0.00244140625,-21,-0.01025390625,2075,1.01318359375,-3,-0.18310546875,-4,-0.244140625,9,0.54931640625,-2944,5080,13377,-237,-1.3018798828125,-17,-0.0933837890625,25256,138.7353515625,409,4.09
79,2915,2345628,0.035,0,1,0.00048828125,-21,-0.01025390625,2098,1.0244140625,-7,-0.42724609375,-16,-0.9765625,5,0.30517578125,-8292,-3885,177,-190,-1.043701171875,6,0.032958984375,-20934,-114.993896484375,403,4.03
82,3021,2345630,0.036,1,-7,-0.00341796875,-17,-0.00830078125,2063,1.00732421875,-3,-0.18310546875,-14,-0.8544921875,-3,-0.18310546875,-1404,-5316,-4174,-675,-3.7078857421875,-838,-4.603271484375,-6620,-36.36474609375,406,4.06
89,3275,2345636,0.039,2,5,0.00244140625,-21,-0.01025390625,2075,1.01318359375,-3,-0.18310546875,-4,-0.244140625,10,0.6103515625,-2957,5066,13377,-237,-1.3018798828125,-17,-0.0933837890625,25256,138.7353515625,409,4.09
96,3529,2345642,0.042,0,-1,-0.00048828125,-17,-0.00830078125,2100,1.025390625,-6,-0.3662109375,-16,-0.9765625,6,0.3662109375,-8300,-3896,150,-190,-1.043701171875,6,0.032958984375,-20934,-114.993896484375,403,4.03
103,3783,2345648,0.045,1,-10,-0.0048828125,-16,-0.0078125,2058,1.0048828125,0,0.0,-15,-0.91552734375,0,0.0,-1398,-5309,-4239,-675,-3.7078857421875,-838,-4.603271484375,-6620,-36.36474609375,406,4.06
104,3815,2345648,0.045,2,6,0.0029296875,-21,-0.01025390625,2075,1.01318359375,-3,-0.18310546875,-4,-0.244140625,10,0.6103515625,-2968,5072,13369,-237,-1.3018798828125,-17,-0.0933837890625,25256,138.7353515625,409,4.09
117,4291,2345660,0.051,0,-1,-0.00048828125,-17,-0.00830078125,2100,1.025390625,-6,-0.3662109375,-16,-0.9765625,6,0.3662109375,-8300,-3896,150,-190,-1.043701171875,6,0.032958984375,-20934,-114.993896484375,403,4.03
118,4323,2345660,0.051,1,-10,-0.0048828125,-18,-0.0087890625,2060,1.005859375,1,0.06103515625,-14,-0.8544921875,-2,-0.1220703125,-1399,-5306,-4204,-671,-3.6859130859375,-833,-4.5758056640625,-6621,-36.3702392578125,406,4.06
119,4355,2345660,0.051,2,6,0.0029296875,-21,-0.01025390625,2075,1.01318359375,-3,-0.18310546875,-4,-0.244140625,10,0.6103515625,-2966,5058,13355,-237,-1.3018798828125,-17,-0.0933837890625,25256,138.7353515625,409,4.09
131,4794,2345671,0.0565,0,0,0.0,-18,-0.0087890625,2105,1.02783203125,-7,-0.42724609375,-15,-0.91552734375,5,0.30517578125,-8300,-3897,173,-190,-1.043701171875,6,0.032958984375,-20934,-114.993896484375,403,4.03
133,4863,2345672,0.057,1,-9,-0.00439453125,-20,-0.009765625,2063,1.00732421875,-1,-0.06103515625,-17,-1.03759765625,-1,-0.06103515625,-1397,-5306,-4220,-671,-3.6859130859375,-833,-4.5758056640625,-6621,-36.3702392578125,406,4.06
136,4969,2345674,0.058,2,6,0.0029296875,-20,-0.009765625,2075,1.01318359375,-3,-0.18310546875,-4,-0.244140625,10,0.6103515625,-2942,5043,13360,-237,-1.3018798828125,-17,-0.0933837890625,25256,138.7353515625,409,4.09
147,5371,2345684,0.063,0,2,0.0009765625,-20,-0.009765625,2097,1.02392578125,-6,-0.3662109375,-16,-0.9765625,6,0.3662109375,-8295,-3921,159,-190,-1.043701171875,6,0.032958984375,-20934,-114.993896484375,403,4.03
150,5477,2345686,0.064,1,-8,-0.00390625,-16,-0.0078125,2055,1.00341796875,-1,-0.06103515625,-14,-0.8544921875,1,0.06103515625,-1400,-5280,-4188,-671,-3.6859130859375,-833,-4.5758056640625,-6621,-36.3702392578125,406,4.06
153,5583,2345688,0.065,2,6,0.0029296875,-20,-0.009765625,2077,1.01416015625,-3,-0.18310546875,-4,-0.244140625,10,0.6103515625,-2938,4994,13328,-237,-1.3018798828125,-17,-0.0933837890625,25256,138.7353515625,409,4.09
164,5985,2345698,0.07,0,1,0.00048828125,-19,-0.00927734375,2104,1.02734375,-6,-0.3662109375,-13,-0.79345703125,4,0.244140625,-8287,-3933,143,-190,-1.043701171875,6,0.032958984375,-20934,-114.993896484375,403,4.03
167,6091,2345700,0.071,1,-9,-0.00439453125,-18,-0.0087890625,2059,1.00537109375,-1,-0.06103515625,-13,-0.79345703125,-1,-0.06103515625,-1389,-5288,-4147,-668,-3.66943359375,-828,-4.54833984375,-6621,-36.3702392578125,406,4.06
174,6345,2345706,0.074,2,5,0.00244140625,-20,-0.009765625,2076,1.013671875,-3,-0.18310546875,-5,-0.30517578125,10,0.6103515625,-2929,4981,13362,-237,-1.3018798828125,-17,-0.0933837890625,25256,138.7353515625,409,4.09
181,6599,2345712,0.077,0,0,0.0,-19,-0.00927734375,2095,1.02294921875,-4,-0.244140625,-16,-0.9765625,5,0.30517578125,-8290,-3945,161,-190,-1.043701171875,6,0.032958984375,-20934,-114.993896484375,403,4.03
188,6853,2345718,0.08,1,-8,-0.00390625,-16,-0.0078125,2057,1.00439453125,-2,-0.1220703125,-15,-0.91552734375,-2,-0.1220703125,-1384,-5323,-4122,-668,-3.66943359375,-828,-4.54833984375,-6621,-36.3702392578125,407,4.07
189,6885,2345718,0.08,2,5,0.00244140625,-20,-0.009765625,2076,1.013671875,-2,-0.1220703125,-4,-0.244140625,9,0.54931640625,-2903,4961,13353,-237,-1.3018798828125,-17,-0.0933837890625,25256,138.7353515625,409,4.09
202,7361,2345730,0.086,0,0,0.0,-19,-0.00927734375,2095,1.02294921875,-4,-0.244140625,-16,-0.9765625,5,0.30517578125,-8290,-3945,161,-190,-1.043701171875,6,0.032958984375,-20934,-114.993896484375,403,4.03
203,7393,2345730,0.086,1,-6,-0.0029296875,-20,-0.009765625,2062,1.0068359375,-3,-0.18310546875,-17,-1.03759765625,-2,-0.1220703125,-1380,-5314,-4121,-668,-3.66943359375,-828,-4.54833984375,-6621,-36.3702392578125,407,4.07
205,7462,2345731,0.0865,2,5,0.00244140625,-20,-0.009765625,2077,1.01416015625,-3,-0.18310546875,-4,-0.244140625,10,0.6103515625,-2892,4952,13349,-237,-1.3018798828125,-17,-0.0933837890625,25256,138.7353515625,409,4.09
216,7864,2345741,0.0915,0,-2,-0.0009765625,-18,-0.0087890625,2100,1.025390625,-7,-0.42724609375,-14,-0.8544921875,5,0.30517578125,-8288,-3918,136,-190,-1.043701171875,6,0.032958984375,-20934,-114.993896484375,403,4.03
218,7933,2345742,0.092,1,-11,-0.00537109375,-21,-0.01025390625,2057,1.00439453125,-2,-0.1220703125,-15,-0.91552734375,-4,-0.244140625,-1377,-5325,-4099,-665,-3.6529541015625,-823,-4.5208740234375,-6621,-36.3702392578125,407,4.07
221,8039,2345744,0.093,2,5,0.00244140625,-20,-0.009765625,2076,1.013671875,-3,-0.18310546875,-4,-0.244140625,10,0.6103515625,-2899,4946,13345,-237,-1.3018798828125,-17,-0.0933837890625,25256,138.7353515625,409,4.09
232,8441,2345754,0.098,0,-2,-0.0009765625,-22,-0.0107421875,2098,1.0244140625,-6,-0.3662109375,-14,-0.8544921875,4,0.244140625,-8293,-3922,133,-190,-1.043701171875,6,0.032958984375,-20934,-114.993896484375,403,4.03
235,8547,2345756,0.099,1,-7,-0.00341796875,-18,-0.0087890625,2057,1.00439453125,-2,-0.1220703125,-14,-0.8544921875,-2,-0.1220703125,-1360,-5330,-4095,-665,-3.6529541015625,-823,-4.5208740234375,-6621,-36.3702392578125,408,4.08
238,8653,2345758,0.1,2,5,0.00244140625,-21,-0.01025390625,2076,1.013671875,-3,-0.18310546875,-4,-0.244140625,10,0.6103515625,-2905,4939,13369,-237,-1.3018798828125,-17,-0.0933837890625,25256,138.7353515625,409,4.09
249,9055,2345768,0.105,0,1,0.00048828125,-20,-0.009765625,2100,1.025390625,-5,-0.30517578125,-14,-0.8544921875,4,0.244140625,-8317,-3906,139,-190,-1.043701171875,6,0.032958984375,-20934,-114.993896484375,403,4.03
252,9161,2345770,0.106,1,-9,-0.00439453125,-17,-0.00830078125,2060,1.005859375,-1,-0.06103515625,-14,-0.8544921875,-1,-0.06103515625,-1381,-5329,-4096,-665,-3.6529541015625,-823,-4.5208740234375,-6621,-36.3702392578125,408,4.08
259,9415,2345776,0.109,2,6,0.0029296875,-21,-0.01025390625,2075,1.01318359375,-3,-0.18310546875,-4,-0.244140625,10,0.6103515625,-2895,4944,13360,-237,-1.3018798828125,-17,-0.0933837890625,25256,138.7353515625,409,4.09
266,9669,2345782,0.112,0,-2,-0.0009765625,-16,-0.0078125,2096,1.0234375,-5,-0.30517578125,-15,-0.91552734375,5,0.30517578125,-8325,-3902,135,-190,-1.043701171875,6,0.032958984375,-20934,-114.993896484375,403,4.03
273,9923,2345788,0.115,1,-10,-0.0048828125,-16,-0.0078125,2059,1.00537109375,0,0.0,-15,-0.91552734375,-2,-0.1220703125,-1409,-5334,-4193,-662,-3.636474609375,-818,-4.493408203125,-6622,-36.375732421875,408,4.08
274,9955,2345788,0.115,2,5,0.00244140625,-21,-0.01025390625,2075,1.01318359375,-3,-0.18310546875,-4,-0.244140625,10,0.6103515625,-2889,4948,13377,-237,-1.3018798828125,-17,-0.0933837890625,25256,138.7353515625,409,4.09
287,10431,2345800,0.121,0,-2,-0.0009765625,-16,-0.0078125,2096,1.0234375,-5,-0.30517578125,-15,-0.91552734375,5,0.30517578125,-8325,-3902,135,-190,-1.043701171875,6,0.032958984375,-20934,-114.993896484375,403,4.03
288,10463,2345800,0.121,1,-7,-0.00341796875,-17,-0.00830078125,2061,1.00634765625,1,0.06103515625,-13,-0.79345703125,0,0.0,-1396,-5333,-4191,-662,-3.636474609375,-818,-4.493408203125,-6622,-36.375732421875,408,4.08
289,10495,2345800,0.121,2,5,0.00244140625,-21,-0.01025390625,2076,1.013671875,-3,-0.18310546875,-4,-0.244140625,9,0.54931640625,-2890,4946,13335,-237,-1.3018798828125,-18,-0.098876953125,25256,138.7353515625,409,4.09
301,10934,2345811,0.1265,0,-1,-0.00048828125,-17,-0.00830078125,2100,1.025390625,-5,-0.30517578125,-17,-1.03759765625,3,0.18310546875,-8341,-3948,160,-190,-1.043701171875,6,0.032958984375,-20934,-114.993896484375,403,4.03
303,11003,2345812,0.127,1,-8,-0.00390625,-20,-0.009765625,2063,1.00732421875,-5,-0.30517578125,-13,-0.79345703125,-1,-0.06103515625,-1372,-5319,-4237,-658,-3.614501953125,-813,-4.4659423828125,-6622,-36.375732421875,408,4.08
306,11109,2345814,0.128,2,5,0.00244140625,-21,-0.01025390625,2075,1.01318359375,-3,-0.18310546875,-4,-0.244140625,10,0.6103515625,-2909,4966,13333,-237,-1.3018798828125,-18,-0.098876953125,25256,138.7353515625,409,4.09
317,11511,2345824,0.133,0,0,0.0,-23,-0.01123046875,2103,1.02685546875,-5,-0.30517578125,-13,-0.79345703125,4,0.244140625,-8314,-3936,191,-190,-1.043701171875,6,0.032958984375,-20934,-114.993896484375,403,4.03
320,11617,2345826,0.134,1,-8,-0.00390625,-14,-0.0068359375,2062,1.0068359375,-3,-0.18310546875,-14,-0.8544921875,-1,-0.06103515625,-1365,-5314,-4239,-658,-3.614501953125,-813,-4.4659423828125,-6622,-36.375732421875,408,4.08
323,11723,2345828,0.135,2,5,0.00244140625,-20,-0.009765625,2076,1.013671875,-3,-0.18310546875,-4,-0.244140625,10,0.6103515625,-2907,4984,13319,-237,-1.3018798828125,-18,-0.098876953125,25256,138.7353515625,409,4.09
334,12125,2345838,0.14,0,-1,-0.00048828125,-22,-0.0107421875,2100,1.025390625,-7,-0.42724609375,-15,-0.91552734375,6,0.3662109375,-8330,-3964,173,-190,-1.043701171875,6,0.032958984375,-20934,-114.993896484375,403,4.03
337,12231,2345840,0.141,1,-11,-0.00537109375,-20,-0.009765625,2060,1.005859375,-1,-0.06103515625,-15,-0.91552734375,-1,-0.06103515625,-1318,-5318,-4258,-658,-3.614501953125,-813,-4.4659423828125,-6622,-36.375732421875,408,4.08
344,12485,2345846,0.144,2,5,0.00244140625,-20,-0.009765625,2077,1.01416015625,-3,-0.18310546875,-4,-0.244140625,10,0.6103515625,-2895,4972,13336,-237,-1.3018798828125,-18,-0.098876953125,25256,138.7353515625,409,4.09
351,12739,2345852,0.147,0,-4,-0.001953125,-18,-0.0087890625,2100,1.025390625,-5,-0.30517578125,-15,-0.91552734375,4,0.244140625,-8316,-3969,189,-190,-1.043701171875,6,0.032958984375,-20934,-114.993896484375,403,4.03
358,12993,2345858,0.15,1,-8,-0.00390625,-17,-0.00830078125,2060,1.005859375,0,0.0,-14,-0.8544921875,-2,-0.1220703125,-1328,-5296,-4223,-655,-3.5980224609375,-808,-4.4384765625,-6622,-36.375732421875,408,4.08
359,13025,2345858,0.15,2,5,0.00244140625,-20,-0.009765625,2077,1.01416015625,-3,-0.18310546875,-4,-0.244140625,9,0.54931640625,-2870,4949,13315,-237,-1.3018798828125,-18,-0.098876953125,25256,138.7353515625,409,4.09
372,13501,2345870,0.156,0,1,0.00048828125,-19,-0.00927734375,2103,1.02685546875,-7,-0.42724609375,-15,-0.91552734375,4,0.244140625,-8312,-3968,178,-190,-1.043701171875,6,0.032958984375,-20934,-114.993896484375,403,4.03
373,13533,2345870,0.156,1,-5,-0.00244140625,-16,-0.0078125,2059,1.00537109375,3,0.18310546875,-14,-0.8544921875,-2,-0.1220703125,-1366,-5288,-4192,-655,-3.5980224609375,-808,-4.4384765625,-6622,-36.375732421875,408,4.08
375,13602,2345871,0.1565,2,5,0.00244140625,-21,-0.01025390625,2078,1.0146484375,-3,-0.18310546875,-4,-0.244140625,10,0.6103515625,-2857,4976,13328,-237,-1.3018798828125,-18,-0.098876953125,25256,138.7353515625,409,4.09
386,14004,2345881,0.1615,0,-5,-0.00244140625,-17,-0.00830078125,2097,1.02392578125,-5,-0.30517578125,-14,-0.8544921875,4,0.244140625,-8290,-3961,167,-190,-1.043701171875,6,0.032958984375,-20934,-114.993896484375,403,4.03
388,14073,2345882,0.162,1,-8,-0.00390625,-18,-0.0087890625,2053,1.00244140625,0,0.0,-15,-0.91552734375,0,0.0,-1348,-5268,-4187,-655,-3.5980224609375,-808,-4.4384765625,-6622,-36.375732421875,408,4.08
391,14179,2345884,0.163,2,5,0.00244140625,-21,-0.01025390625,2078,1.0146484375,-3,-0.18310546875,-4,-0.244140625,10,0.6103515625,-2847,4997,13342,-237,-1.3018798828125,-18,-0.098876953125,25256,138.7353515625,409,4.09
409,14840,2345901,0.1715,0,-2,-0.0009765625,-17,-0.00830078125,2099,1.02490234375,-5,-0.30517578125,-16,-0.9765625,2,0.1220703125,-8262,-3952,171,-190,-1.043701171875,6,0.032958984375,-20934,-114.993896484375,403,4.03
410,14872,2345901,0.1715,1,-9,-0.00439453125,-20,-0.009765625,2059,1.00537109375,-4,-0.244140625,-16,-0.9765625,-1,-0.06103515625,-1362,-5257,-4150,-652,-3.58154296875,-804,-4.41650390625,-6623,-36.3812255859375,408,4.08
418,15163,2345908,0.175,2,5,0.00244140625,-21,-0.01025390625,2076,1.013671875,-2,-0.1220703125,-4,-0.244140625,10,0.6103515625,-2818,4993,13379,-237,-1.3018798828125,-18,-0.098876953125,25256,138.7353515625,409,4.09
419,15195,2345908,0.175,0,-1,-0.00048828125,-19,-0.00927734375,2101,1.02587890625,-9,-0.54931640625,-16,-0.9765625,5,0.30517578125,-8265,-3927,153,-190,-1.043701171875,6,0.032958984375,-20935,-114.9993896484375,403,4.03
422,15301,2345910,0.176,1,-11,-0.00537109375,-18,-0.0087890625,2061,1.00634765625,-5,-0.30517578125,-15,-0.91552734375,-2,-0.1220703125,-1373,-5240,-4176,-652,-3.58154296875,-804,-4.41650390625,-6623,-36.3812255859375,408,4.08
431,15629,2345918,0.18,2,5,0.00244140625,-21,-0.01025390625,2075,1.01318359375,-3,-0.18310546875,-4,-0.244140625,10,0.6103515625,-2831,4994,13369,-237,-1.3018798828125,-18,-0.098876953125,25256,138.7353515625,409,4.09
436,15809,2345922,0.182,0,-1,-0.00048828125,-18,-0.0087890625,2099,1.02490234375,-4,-0.244140625,-14,-0.8544921875,5,0.30517578125,-8267,-3917,145,-190,-1.043701171875,6,0.032958984375,-20935,-114.9993896484375,403,4.03
443,16063,2345928,0.185,1,-10,-0.0048828125,-17,-0.00830078125,2055,1.00341796875,-3,-0.18310546875,-15,-0.91552734375,-1,-0.06103515625,-1394,-5267,-4201,-652,-3.58154296875,-804,-4.41650390625,-6623,-36.3812255859375,408,4.08
444,16095,2345928,0.185,2,5,0.00244140625,-21,-0.01025390625,2076,1.013671875,-3,-0.18310546875,-4,-0.244140625,10,0.6103515625,-2835,4995,13391,-237,-1.3018798828125,-18,-0.098876953125,25256,138.7353515625,409,4.09
457,16571,2345940,0.191,0,-3,-0.00146484375,-17,-0.00830078125,2101,1.02587890625,-7,-0.42724609375,-14,-0.8544921875,2,0.1220703125,-8268,-3908,138,-190,-1.043701171875,6,0.032958984375,-20935,-114.9993896484375,403,4.03
458,16603,2345940,0.191,1,-6,-0.0029296875,-21,-0.01025390625,2065,1.00830078125,-1,-0.06103515625,-15,-0.91552734375,-1,-0.06103515625,-1394,-5270,-4174,-649,-3.5650634765625,-799,-4.3890380859375,-6623,-36.3812255859375,408,4.08
459,16635,2345940,0.191,2,5,0.00244140625,-21,-0.01025390625,2075,1.01318359375,-3,-0.18310546875,-4,-0.244140625,10,0.6103515625,-2818,4991,13393,-237,-1.3018798828125,-18,-0.098876953125,25256,138.7353515625,409,4.09
472,17111,2345952,0.197,0,-1,-0.00048828125,-21,-0.01025390625,2095,1.02294921875,-5,-0.30517578125,-15,-0.91552734375,6,0.3662109375,-8262,-3905,123,-190,-1.043701171875,6,0.032958984375,-20935,-114.9993896484375,403,4.03
473,17143,2345952,0.197,1,-10,-0.0048828125,-16,-0.0078125,2056,1.00390625,-2,-0.1220703125,-15,-0.91552734375,-3,-0.18310546875,-1382,-5272,-4194,-649,-3.5650634765625,-799,-4.3890380859375,-6623,-36.3812255859375,408,4.08
476,17249,2345954,0.198,2,5,0.00244140625,-21,-0.01025390625,2076,1.013671875,-3,-0.18310546875,-4,-0.244140625,10,0.6103515625,-2824,4994,13362,-237,-1.3018798828125,-18,-0.098876953125,25256,138.7353515625,409,4.09
487,17651,2345964,0.203,0,0,0.0,-18,-0.0087890625,2098,1.0244140625,-6,-0.3662109375,-13,-0.79345703125,5,0.30517578125,-8283,-3906,143,-190,-1.043701171875,6,0.032958984375,-20935,-114.9993896484375,403,4.03
490,17757,2345966,0.204,1,-4,-0.001953125,-16,-0.0078125,2060,1.005859375,0,0.0,-16,-0.9765625,-1,-0.06103515625,-1361,-5277,-4230,-649,-3.5650634765625,-799,-4.3890380859375,-6623,-36.3812255859375,408,4.08
493,17863,2345968,0.205,2,6,0.0029296875,-21,-0.01025390625,2076,1.013671875,-3,-0.18310546875,-4,-0.244140625,10,0.6103515625,-2843,4987,13325,-237,-1.3018798828125,-18,-0.098876953125,25256,138.7353515625,409,4.09
504,18265,2345978,0.21,0,0,0.0,-18,-0.0087890625,2098,1.0244140625,-6,-0.3662109375,-13,-0.79345703125,5,0.30517578125,-8283,-3906,143,-190,-1.043701171875,6,0.032958984375,-20935,-114.9993896484375,403,4.03
507,18371,2345980,0.211,1,-10,-0.0048828125,-16,-0.0078125,2064,1.0078125,-1,-0.06103515625,-13,-0.79345703125,-1,-0.06103515625,-1372,-5269,-4200,-646,-3.548583984375,-794,-4.361572265625,-6623,-36.3812255859375,408,4.08
514,18625,2345986,0.214,2,6,0.0029296875,-21,-0.01025390625,2076,1.013671875,-3,-0.18310546875,-4,-0.244140625,10,0.6103515625,-2857,5015,13342,-237,-1.3018798828125,-18,-0.098876953125,25256,138.7353515625,409,4.09
521,18879,2345992,0.217,0,-1,-0.00048828125,-24,-0.01171875,2094,1.0224609375,-4,-0.244140625,-15,-0.91552734375,6,0.3662109375,-8281,-3915,163,-190,-1.043701171875,6,0.032958984375,-20935,-114.9993896484375,404,4.04
528,19133,2345998,0.22,1,-8,-0.00390625,-15,-0.00732421875,2057,1.00439453125,-1,-0.06103515625,-15,-0.91552734375,-4,-0.244140625,-1388,-5292,-4227,-646,-3.548583984375,-794,-4.361572265625,-6623,-36.3812255859375,408,4.08
529,19165,2345998,0.22,2,7,0.00341796875,-21,-0.01025390625,2077,1.01416015625,-3,-0.18310546875,-5,-0.30517578125,10,0.6103515625,-2874,5020,13337,-237,-1.3018798828125,-18,-0.098876953125,25256,138.7353515625,409,4.09
542,19641,2346010,0.226,0,-2,-0.0009765625,-21,-0.01025390625,2100,1.025390625,-8,-0.48828125,-14,-0.8544921875,5,0.30517578125,-8284,-3909,166,-190,-1.043701171875,6,0.032958984375,-20935,-114.9993896484375,404,4.04
543,19673,2346010,0.226,1,-9,-0.00439453125,-17,-0.00830078125,2062,1.0068359375,0,0.0,-12,-0.732421875,-1,-0.06103515625,-1414,-5303,-4211,-646,-3.548583984375,-794,-4.361572265625,-6623,-36.3812255859375,408,4.08
545,19742,2346011,0.2265,2,7,0.00341796875,-22,-0.0107421875,2075,1.01318359375,-3,-0.18310546875,-3,-0.18310546875,9,0.54931640625,-2849,5004,13335,-237,-1.3018798828125,-18,-0.098876953125,25256,138.7353515625,410,4.1
557,20181,2346022,0.232,0,1,0.00048828125,-17,-0.00830078125,2100,1.025390625,-5,-0.30517578125,-14,-0.8544921875,4,0.244140625,-8282,-3914,211,-190,-1.043701171875,6,0.032958984375,-20935,-114.9993896484375,404,4.04
558,20213,2346022,0.232,1,-8,-0.00390625,-19,-0.00927734375,2056,1.00390625,-2,-0.1220703125,-14,-0.8544921875,-2,-0.1220703125,-1423,-5297,-4188,-642,-3.526611328125,-790,-4.339599609375,-6624,-36.38671875,408,4.08
561,20319,2346024,0.233,2,6,0.0029296875,-22,-0.0107421875,2075,1.01318359375,-3,-0.18310546875,-4,-0.244140625,9,0.54931640625,-2855,4994,13342,-237,-1.3018798828125,-18,-0.098876953125,25256,138.7353515625,410,4.1
572,20721,2346034,0.238,0,3,0.00146484375,-20,-0.009765625,2099,1.02490234375,-6,-0.3662109375,-14,-0.8544921875,5,0.30517578125,-8282,-3895,184,-190,-1.043701171875,6,0.032958984375,-20935,-114.9993896484375,404,4.04
575,20827,2346036,0.239,1,-11,-0.00537109375,-22,-0.0107421875,2065,1.00830078125,1,0.06103515625,-14,-0.8544921875,0,0.0,-1441,-5293,-4268,-642,-3.526611328125,-790,-4.339599609375,-6624,-36.38671875,408,4.08
578,20933,2346038,0.24,2,5,0.00244140625,-21,-0.01025390625,2076,1.013671875,-2,-0.1220703125,-4,-0.244140625,10,0.6103515625,-2900,4999,13323,-237,-1.3018798828125,-18,-0.098876953125,25256,138.7353515625,410,4.1
589,21335,2346048,0.245,0,3,0.00146484375,-20,-0.009765625,2099,1.02490234375,-6,-0.3662109375,-14,-0.8544921875,5,0.30517578125,-8282,-3895,184,-190,-1.043701171875,6,0.032958984375,-20935,-114.9993896484375,404,4.04
592,21441,2346050,0.246,1,-10,-0.0048828125,-19,-0.00927734375,2061,1.00634765625,-2,-0.1220703125,-14,-0.8544921875,-1,-0.06103515625,-1403,-5322,-4269,-642,-3.526611328125,-790,-4.339599609375,-6624,-36.38671875,408,4.08
599,21695,2346056,0.249,2,5,0.00244140625,-21,-0.01025390625,2077,1.01416015625,-3,-0.18310546875,-4,-0.244140625,9,0.54931640625,-2900,5017,13314,-237,-1.3018798828125,-18,-0.098876953125,25256,138.7353515625,410,4.1
606,21949,2346062,0.252,0,1,0.00048828125,-24,-0.01171875,2098,1.0244140625,-8,-0.48828125,-16,-0.9765625,5,0.30517578125,-8310,-3928,212,-190,-1.043701171875,6,0.032958984375,-20935,-114.9993896484375,405,4.05
613,22203,2346068,0.255,1,-7,-0.00341796875,-16,-0.0078125,2056,1.00390625,-2,-0.1220703125,-13,-0.79345703125,1,0.06103515625,-1395,-5296,-4211,-639,-3.5101318359375,-785,-4.3121337890625,-6624,-36.38671875,407,4.07
614,22235,2346068,0.255,2,5,0.00244140625,-21,-0.01025390625,2077,1.01416015625,-3,-0.18310546875,-4,-0.244140625,9,0.54931640625,-2889,4986,13311,-237,-1.3018798828125,-18,-0.098876953125,25256,138.7353515625,410,4.1
627,22711,2346080,0.261,0,-5,-0.00244140625,-18,-0.0087890625,2100,1.025390625,-7,-0.42724609375,-16,-0.9765625,4,0.244140625,-8298,-3948,197,-190,-1.043701171875,6,0.032958984375,-20935,-114.9993896484375,405,4.05
628,22743,2346080,0.261,1,-9,-0.00439453125,-16,-0.0078125,2061,1.00634765625,-2,-0.1220703125,-15,-0.91552734375,-1,-0.06103515625,-1383,-5299,-4222,-639,-3.5101318359375,-785,-4.3121337890625,-6624,-36.38671875,407,4.07
629,22775,2346080,0.261,2,5,0.00244140625,-21,-0.01025390625,2075,1.01318359375,-3,-0.18310546875,-4,-0.244140625,10,0.6103515625,-2871,4961,13312,-237,-1.3018798828125,-18,-0.098876953125,25256,138.7353515625,410,4.1
642,23251,2346092,0.267,0,0,0.0,-20,-0.009765625,2099,1.02490234375,-5,-0.30517578125,-14,-0.8544921875,2,0.1220703125,-8307,-3955,146,-190,-1.043701171875,6,0.032958984375,-20935,-114.9993896484375,405,4.05
643,23283,2346092,0.267,1,-11,-0.00537109375,-19,-0.00927734375,2056,1.00390625,0,0.0,-15,-0.91552734375,-4,-0.244140625,-1366,-5294,-4248,-639,-3.5101318359375,-785,-4.3121337890625,-6624,-36.38671875,407,4.07
646,23389,2346094,0.268,2,5,0.00244140625,-22,-0.0107421875,2075,1.01318359375,-3,-0.18310546875,-4,-0.244140625,10,0.6103515625,-2865,5002,13292,-237,-1.3018798828125,-18,-0.098876953125,25256,138.7353515625,410,4.1
657,23791,2346104,0.273,0,-1,-0.00048828125,-19,-0.00927734375,2104,1.02734375,-6,-0.3662109375,-13,-0.79345703125,3,0.18310546875,-8292,-3947,127,-190,-1.043701171875,6,0.032958984375,-20935,-114.9993896484375,405,4.05
660,23897,2346106,0.274,1,-5,-0.00244140625,-19,-0.00927734375,2065,1.00830078125,-1,-0.06103515625,-14,-0.8544921875,-2,-0.1220703125,-1379,-5283,-4221,-636,-3.49365234375,-780,-4.28466796875,-6624,-36.38671875,407,4.07
663,24003,2346108,0.275,2,5,0.00244140625,-22,-0.0107421875,2075,1.01318359375,-3,-0.18310546875,-4,-0.244140625,10,0.6103515625,-2873,5017,13307,-237,-1.3018798828125,-18,-0.098876953125,25256,138.7353515625,410,4.1
674,24405,2346118,0.28,0,-4,-0.001953125,-22,-0.0107421875,2097,1.02392578125,-7,-0.42724609375,-16,-0.9765625,5,0.30517578125,-8300,-3948,137,-190,-1.043701171875,6,0.032958984375,-20935,-114.9993896484375,405,4.05
677,24511,2346120,0.281,1,-10,-0.0048828125,-18,-0.0087890625,2056,1.00390625,1,0.06103515625,-15,-0.91552734375,-1,-0.06103515625,-1365,-5273,-4246,-636,-3.49365234375,-780,-4.28466796875,-6624,-36.38671875,407,4.07
684,24765,2346126,0.284,2,5,0.00244140625,-22,-0.0107421875,2077,1.01416015625,-3,-0.18310546875,-4,-0.244140625,10,0.6103515625,-2889,5020,13342,-237,-1.3018798828125,-18,-0.098876953125,25256,138.7353515625,410,4.1
691,25019,2346132,0.287,0,0,0.0,-23,-0.01123046875,2097,1.02392578125,-6,-0.3662109375,-16,-0.9765625,6,0.3662109375,-8293,-3959,172,-190,-1.043701171875,6,0.032958984375,-20935,-114.9993896484375,405,4.05
698,25273,2346138,0.29,1,-8,-0.00390625,-17,-0.00830078125,2056,1.00390625,-2,-0.1220703125,-16,-0.9765625,-2,-0.1220703125,-1367,-5276,-4265,-633,-3.4771728515625,-776,-4.2626953125,-6624,-36.38671875,407,4.07
699,25305,2346138,0.29,2,5,0.00244140625,-21,-0.01025390625,2076,1.013671875,-2,-0.1220703125,-4,-0.244140625,10,0.6103515625,-2879,5000,13330,-237,-1.3018798828125,-18,-0.098876953125,25256,138.7353515625,410,4.1
712,25781,2346150,0.296,0,-2,-0.0009765625,-20,-0.009765625,2098,1.0244140625,-6,-0.3662109375,-14,-0.8544921875,3,0.18310546875,-8287,-3953,157,-190,-1.043701171875,6,0.032958984375,-20935,-114.9993896484375,405,4.05
713,25813,2346150,0.296,1,-12,-0.005859375,-13,-0.00634765625,2060,1.005859375,-2,-0.1220703125,-13,-0.79345703125,0,0.0,-1333,-5260,-4310,-633,-3.4771728515625,-776,-4.2626953125,-6624,-36.38671875,407,4.07
714,25845,2346150,0.296,2,5,0.00244140625,-21,-0.01025390625,2075,1.01318359375,-2,-0.1220703125,-4,-0.244140625,10,0.6103515625,-2862,5000,13341,-237,-1.3018798828125,-18,-0.098876953125,25256,138.7353515625,410,4.1
727,26321,2346162,0.302,0,-1,-0.00048828125,-18,-0.0087890625,2099,1.02490234375,-4,-0.244140625,-15,-0.91552734375,5,0.30517578125,-8304,-3953,174,-190,-1.043701171875,6,0.032958984375,-20935,-114.9993896484375,406,4.06
728,26353,2346162,0.302,1,-9,-0.00439453125,-19,-0.00927734375,2063,1.00732421875,1,0.06103515625,-15,-0.91552734375,-2,-0.1220703125,-1343,-5266,-4317,-633,-3.4771728515625,-776,-4.2626953125,-6624,-36.38671875,407,4.07
731,26459,2346164,0.303,2,5,0.00244140625,-21,-0.01025390625,2074,1.0126953125,-3,-0.18310546875,-4,-0.244140625,9,0.54931640625,-2881,4981,13329,-237,-1.3018798828125,-18,-0.098876953125,25256,138.7353515625,410,4.1
742,26861,2346174,0.308,0,0,0.0,-20,-0.009765625,2104,1.02734375,-7,-0.42724609375,-16,-0.9765625,5,0.30517578125,-8295,-3959,175,-190,-1.043701171875,6,0.032958984375,-20935,-114.9993896484375,406,4.06
745,26967,2346176,0.309,1,-9,-0.00439453125,-17,-0.00830078125,2061,1.00634765625,-1,-0.06103515625,-15,-0.91552734375,-4,-0.244140625,-1363,-5246,-4287,-630,-3.460693359375,-771,-4.2352294921875,-6625,-36.3922119140625,407,4.07
748,27073,2346178,0.31,2,5,0.00244140625,-21,-0.01025390625,2075,1.01318359375,-3,-0.18310546875,-4,-0.244140625,9,0.54931640625,-2875,4963,13304,-237,-1.3018798828125,-18,-0.098876953125,25256,138.7353515625,409,4.09
759,27475,2346188,0.315,0,-1,-0.00048828125,-22,-0.0107421875,2097,1.02392578125,-4,-0.244140625,-15,-0.91552734375,4,0.244140625,-8292,-3973,169,-190,-1.043701171875,6,0.032958984375,-20935,-114.9993896484375,406,4.06
762,27581,2346190,0.316,1,-8,-0.00390625,-19,-0.00927734375,2057,1.00439453125,-1,-0.06103515625,-15,-0.91552734375,-2,-0.1220703125,-1369,-5263,-4263,-630,-3.460693359375,-771,-4.2352294921875,-6625,-36.3922119140625,407,4.07
769,27835,2346196,0.319,2,5,0.00244140625,-22,-0.0107421875,2076,1.013671875,-3,-0.18310546875,-4,-0.244140625,10,0.6103515625,-2876,4954,13337,-237,-1.3018798828125,-18,-0.098876953125,25256,138.7353515625,409,4.09
776,28089,2346202,0.322,0,0,0.0,-20,-0.009765625,2101,1.02587890625,-8,-0.48828125,-14,-0.8544921875,4,0.244140625,-8306,-3956,164,-190,-1.043701171875,6,0.032958984375,-20936,-115.0048828125,406,4.06
783,28343,2346208,0.325,1,-10,-0.0048828125,-18,-0.0087890625,2057,1.00439453125,-2,-0.1220703125,-15,-0.91552734375,-1,-0.06103515625,-1384,-5247,-4259,-630,-3.460693359375,-771,-4.2352294921875,-6625,-36.3922119140625,407,4.07
784,28375,2346208,0.325,2,5,0.00244140625,-21,-0.01025390625,2075,1.01318359375,-3,-0.18310546875,-5,-0.30517578125,10,0.6103515625,-2898,4976,13323,-237,-1.3018798828125,-18,-0.098876953125,25256,138.7353515625,409,4.09
793,28703,2346216,0.329,0,0,0.0,-19,-0.00927734375,2096,1.0234375,-6,-0.3662109375,-15,-0.91552734375,3,0.18310546875,-8299,-3958,162,-190,-1.043701171875,6,0.032958984375,-20936,-115.0048828125,406,4.06
798,28883,2346220,0.331,1,-10,-0.0048828125,-16,-0.0078125,2061,1.00634765625,-3,-0.18310546875,-15,-0.91552734375,-2,-0.1220703125,-1388,-5261,-4251,-627,-3.4442138671875,-767,-4.2132568359375,-6625,-36.3922119140625,407,4.07
800,28952,2346221,0.3315,2,4,0.001953125,-21,-0.01025390625,2076,1.013671875,-3,-0.18310546875,-4,-0.244140625,9,0.54931640625,-2919,5006,13300,-237,-1.3018798828125,-18,-0.098876953125,25256,138.7353515625,409,4.09
812,29391,2346232,0.337,0,0,0.0,-20,-0.009765625,2097,1.02392578125,-6,-0.3662109375,-15,-0.91552734375,3,0.18310546875,-8319,-3980,116,-190,-1.043701171875,6,0.032958984375,-20936,-115.0048828125,406,4.06
813,29423,2346232,0.337,1,-10,-0.0048828125,-18,-0.0087890625,2061,1.00634765625,-3,-0.18310546875,-14,-0.8544921875,-3,-0.18310546875,-1391,-5280,-4243,-627,-3.4442138671875,-767,-4.2132568359375,-6625,-36.3922119140625,407,4.07
816,29529,2346234,0.338,2,5,0.00244140625,-21,-0.01025390625,2077,1.01416015625,-3,-0.18310546875,-4,-0.244140625,9,0.54931640625,-2921,5016,13290,-236,-1.29638671875,-18,-0.098876953125,25256,138.7353515625,409,4.09
827,29931,2346244,0.343,0,0,0.0,-20,-0.009765625,2098,1.0244140625,-5,-0.30517578125,-14,-0.8544921875,5,0.30517578125,-8315,-3985,92,-190,-1.043701171875,6,0.032958984375,-20936,-115.0048828125,406,4.06
830,30037,2346246,0.344,1,-9,-0.00439453125,-16,-0.0078125,2057,1.00439453125,-1,-0.06103515625,-15,-0.91552734375,-1,-0.06103515625,-1357,-5272,-4250,-627,-3.4442138671875,-767,-4.2132568359375,-6625,-36.3922119140625,407,4.07
833,30143,2346248,0.345,2,5,0.00244140625,-21,-0.01025390625,2077,1.01416015625,-3,-0.18310546875,-4,-0.244140625,10,0.6103515625,-2923,5024,13281,-236,-1.29638671875,-18,-0.098876953125,25256,138.7353515625,409,4.09
844,30545,2346258,0.35,0,-1,-0.00048828125,-20,-0.009765625,2102,1.0263671875,-6,-0.3662109375,-14,-0.8544921875,5,0.30517578125,-8304,-3975,112,-190,-1.043701171875,6,0.032958984375,-20936,-115.0048828125,406,4.06
847,30651,2346260,0.351,1,-9,-0.00439453125,-21,-0.01025390625,2061,1.00634765625,-5,-0.30517578125,-14,-0.8544921875,-1,-0.06103515625,-1363,-5276,-4277,-624,-3.427734375,-762,-4.185791015625,-6625,-36.3922119140625,407,4.07
854,30905,2346266,0.354,2,5,0.00244140625,-20,-0.009765625,2076,1.013671875,-3,-0.18310546875,-4,-0.244140625,10,0.6103515625,-2901,5028,13262,-236,-1.29638671875,-18,-0.098876953125,25256,138.7353515625,409,4.09
861,31159,2346272,0.357,0,-1,-0.00048828125,-19,-0.00927734375,2107,1.02880859375,-8,-0.48828125,-12,-0.732421875,5,0.30517578125,-8298,-3969,112,-190,-1.043701171875,6,0.032958984375,-20936,-115.0048828125,406,4.06
868,31413,2346278,0.36,1,-10,-0.0048828125,-16,-0.0078125,2060,1.005859375,-3,-0.18310546875,-14,-0.8544921875,-2,-0.1220703125,-1378,-5281,-4296,-624,-3.427734375,-762,-4.185791015625,-6625,-36.3922119140625,407,4.07
869,31445,2346278,0.36,2,5,0.00244140625,-20,-0.009765625,2075,1.01318359375,-3,-0.18310546875,-4,-0.244140625,10,0.6103515625,-2899,5019,13282,-236,-1.29638671875,-18,-0.098876953125,25256,138.7353515625,409,4.09
878,31773,2346286,0.364,0,0,0.0,-20,-0.009765625,2095,1.02294921875,-5,-0.30517578125,-13,-0.79345703125,4,0.244140625,-8294,-3986,128,-190,-1.043701171875,6,0.032958984375,-20936,-115.0048828125,406,4.06
883,31953,2346290,0.366,1,-10,-0.0048828125,-20,-0.009765625,2058,1.0048828125,-4,-0.244140625,-14,-0.8544921875,-1,-0.06103515625,-1419,-5275,-4182,-624,-3.427734375,-762,-4.185791015625,-6625,-36.3922119140625,407,4.07
885,32022,2346291,0.3665,2,4,0.001953125,-20,-0.009765625,2075,1.01318359375,-3,-0.18310546875,-4,-0.244140625,9,0.54931640625,-2896,5002,13275,-236,-1.29638671875,-18,-0.098876953125,25256,138.7353515625,409,4.09
897,32461,2346302,0.372,0,0,0.0,-20,-0.009765625,2095,1.02294921875,-5,-0.30517578125,-13,-0.79345703125,4,0.244140625,-8294,-3986,128,-190,-1.043701171875,6,0.032958984375,-20936,-115.0048828125,406,4.06
898,32493,2346302,0.372,1,-9,-0.00439453125,-15,-0.00732421875,2059,1.00537109375,-1,-0.06103515625,-15,-0.91552734375,-2,-0.1220703125,-1422,-5270,-4204,-621,-3.4112548828125,-758,-4.163818359375,-6625,-36.3922119140625,408,4.08
901,32599,2346304,0.373,2,4,0.001953125,-20,-0.009765625,2076,1.013671875,-3,-0.18310546875,-4,-0.244140625,10,0.6103515625,-2904,5006,13291,-236,-1.29638671875,-18,-0.098876953125,25256,138.7353515625,409,4.09
912,33001,2346314,0.378,0,2,0.0009765625,-17,-0.00830078125,2098,1.0244140625,-4,-0.244140625,-14,-0.8544921875,6,0.3662109375,-8300,-3936,119,-190,-1.043701171875,6,0.032958984375,-20936,-115.0048828125,406,4.06
915,33107,2346316,0.379,1,-9,-0.00439453125,-17,-0.00830078125,2059,1.00537109375,0,0.0,-15,-0.91552734375,-3,-0.18310546875,-1411,-5296,-4193,-621,-3.4112548828125,-758,-4.163818359375,-6625,-36.3922119140625,408,4.08
918,33213,2346318,0.38,2,4,0.001953125,-21,-0.01025390625,2076,1.013671875,-2,-0.1220703125,-4,-0.244140625,10,0.6103515625,-2930,5005,13324,-236,-1.29638671875,-18,-0.098876953125,25256,138.7353515625,409,4.09
929,33615,2346328,0.385,0,0,0.0,-20,-0.009765625,2100,1.025390625,-6,-0.3662109375,-14,-0.8544921875,5,0.30517578125,-8321,-3948,127,-190,-1.043701171875,6,0.032958984375,-20936,-115.0048828125,406,4.06
932,33721,2346330,0.386,1,-8,-0.00390625,-18,-0.0087890625,2056,1.00390625,-2,-0.1220703125,-13,-0.79345703125,-2,-0.1220703125,-1385,-5299,-4221,-621,-3.4112548828125,-758,-4.163818359375,-6625,-36.3922119140625,408,4.08
939,33975,2346336,0.389,2,5,0.00244140625,-21,-0.01025390625,2075,1.01318359375,-2,-0.1220703125,-4,-0.244140625,9,0.54931640625,-2897,5019,13400,-236,-1.29638671875,-18,-0.098876953125,25256,138.7353515625,409,4.09
946,34229,2346342,0.392,0,-1,-0.00048828125,-21,-0.01025390625,2102,1.0263671875,-4,-0.244140625,-13,-0.79345703125,3,0.18310546875,-8305,-3949,189,-190,-1.043701171875,6,0.032958984375,-20936,-115.0048828125,406,4.06
949,34335,2346344,0.393,1,-10,-0.0048828125,-19,-0.00927734375,2059,1.00537109375,0,0.0,-14,-0.8544921875,0,0.0,-1374,-5307,-4219,-618,-3.394775390625,-753,-4.1363525390625,-6626,-36.397705078125,408,4.08
954,34515,2346348,0.395,2,5,0.00244140625,-21,-0.01025390625,2074,1.0126953125,-2,-0.1220703125,-4,-0.244140625,9,0.54931640625,-2895,4998,13437,-236,-1.29638671875,-18,-0.098876953125,25256,138.7353515625,409,4.09
963,34843,2346356,0.399,0,0,0.0,-25,-0.01220703125,2101,1.02587890625,-5,-0.30517578125,-14,-0.8544921875,3,0.18310546875,-8283,-3968,198,-190,-1.043701171875,6,0.032958984375,-20936,-115.0048828125,406,4.06
968,35023,2346360,0.401,1,-9,-0.00439453125,-17,-0.00830078125,2059,1.00537109375,0,0.0,-14,-0.8544921875,-1,-0.06103515625,-1346,-5282,-4296,-618,-3.394775390625,-753,-4.1363525390625,-6626,-36.397705078125,408,4.08
969,35055,2346360,0.401,2,5,0.00244140625,-20,-0.009765625,2075,1.01318359375,-3,-0.18310546875,-4,-0.244140625,10,0.6103515625,-2882,4993,13460,-236,-1.29638671875,-18,-0.098876953125,25256,138.7353515625,409,4.09
982,35531,2346372,0.407,0,0,0.0,-25,-0.01220703125,2101,1.02587890625,-5,-0.30517578125,-14,-0.8544921875,3,0.18310546875,-8283,-3968,198,-190,-1.043701171875,6,0.032958984375,-20936,-115.0048828125,406,4.06
983,35563,2346372,0.407,1,-9,-0.00439453125,-20,-0.009765625,2061,1.00634765625,-3,-0.18310546875,-14,-0.8544921875,-2,-0.1220703125,-1386,-5271,-4281,-618,-3.394775390625,-753,-4.1363525390625,-6626,-36.397705078125,408,4.08
986,35669,2346374,0.408,2,5,0.00244140625,-20,-0.009765625,2076,1.013671875,-3,-0.18310546875,-4,-0.244140625,9,0.54931640625,-2867,4987,13398,-236,-1.29638671875,-18,-0.098876953125,25256,138.7353515625,409,4.09
997,36071,2346384,0.413,0,1,0.00048828125,-17,-0.00830078125,2097,1.02392578125,-5,-0.30517578125,-14,-0.8544921875,5,0.30517578125,-8302,-3990,152,-190,-1.043701171875,6,0.032958984375,-20936,-115.0048828125,406,4.06
1000,36177,2346386,0.414,1,-9,-0.00439453125,-17,-0.00830078125,2062,1.0068359375,-5,-0.30517578125,-13,-0.79345703125,-2,-0.1220703125,-1415,-5269,-4250,-615,-3.3782958984375,-749,-4.1143798828125,-6626,-36.397705078125,408,4.08
1003,36283,2346388,0.415,2,5,0.00244140625,-20,-0.009765625,2076,1.013671875,-3,-0.18310546875,-4,-0.244140625,10,0.6103515625,-2864,4985,13384,-236,-1.29638671875,-18,-0.098876953125,25256,138.7353515625,409,4.09
1014,36685,2346398,0.42,0,-1,-0.00048828125,-22,-0.0107421875,2098,1.0244140625,-7,-0.42724609375,-11,-0.67138671875,6,0.3662109375,-8306,-3989,136,-190,-1.043701171875,6,0.032958984375,-20936,-115.0048828125,406,4.06
1017,36791,2346400,0.421,1,-9,-0.00439453125,-17,-0.00830078125,2060,1.005859375,-2,-0.1220703125,-15,-0.91552734375,0,0.0,-1380,-5282,-4300,-615,-3.3782958984375,-749,-4.1143798828125,-6626,-36.397705078125,408,4.08
1024,37045,2346406,0.424,2,6,0.0029296875,-21,-0.01025390625,2075,1.01318359375,-3,-0.18310546875,-4,-0.244140625,10,0.6103515625,-2872,4962,13386,-236,-1.29638671875,-18,-0.098876953125,25256,138.7353515625,409,4.09
1031,37299,2346412,0.427,0,-3,-0.00146484375,-18,-0.0087890625,2101,1.02587890625,-7,-0.42724609375,-12,-0.732421875,3,0.18310546875,-8313,-3965,122,-190,-1.043701171875,6,0.032958984375,-20936,-115.0048828125,405,4.05
1034,37405,2346414,0.428,1,-11,-0.00537109375,-14,-0.0068359375,2058,1.0048828125,-2,-0.1220703125,-13,-0.79345703125,-2,-0.1220703125,-1361,-5284,-4323,-615,-3.3782958984375,-749,-4.1143798828125,-6626,-36.397705078125,408,4.08
1039,37585,2346418,0.43,2,6,0.0029296875,-21,-0.01025390625,2075,1.01318359375,-2,-0.1220703125,-4,-0.244140625,10,0.6103515625,-2849,4952,13390,-236,-1.29638671875,-18,-0.098876953125,25256,138.7353515625,409,4.09
1048,37913,2346426,0.434,0,-1,-0.00048828125,-20,-0.009765625,2102,1.0263671875,-4,-0.244140625,-14,-0.8544921875,5,0.30517578125,-8317,-3960,111,-190,-1.043701171875,6,0.032958984375,-20936,-115.0048828125,405,4.05
1053,38093,2346430,0.436,1,-11,-0.00537109375,-15,-0.00732421875,2053,1.00244140625,-2,-0.1220703125,-14,-0.8544921875,-2,-0.1220703125,-1332,-5297,-4246,-612,-3.36181640625,-744,-4.0869140625,-6626,-36.397705078125,408,4.08
1055,38162,2346431,0.4365,2,6,0.0029296875,-21,-0.01025390625,2075,1.01318359375,-3,-0.18310546875,-4,-0.244140625,10,0.6103515625,-2859,4941,13359,-236,-1.29638671875,-18,-0.098876953125,25256,138.7353515625,409,4.09
1067,38601,2346442,0.442,0,0,0.0,-18,-0.0087890625,2097,1.02392578125,-5,-0.30517578125,-14,-0.8544921875,5,0.30517578125,-8321,-3955,102,-190,-1.043701171875,6,0.032958984375,-20937,-115.0103759765625,405,4.05
1068,38633,2346442,0.442,1,-8,-0.00390625,-17,-0.00830078125,2058,1.0048828125,1,0.06103515625,-14,-0.8544921875,-1,-0.06103515625,-1353,-5295,-4277,-612,-3.36181640625,-744,-4.0869140625,-6626,-36.397705078125,408,4.08
1071,38739,2346444,0.443,2,5,0.00244140625,-20,-0.009765625,2076,1.013671875,-2,-0.1220703125,-4,-0.244140625,9,0.54931640625,-2874,4970,13359,-236,-1.29638671875,-18,-0.098876953125,25256,138.7353515625,409,4.09
1082,39141,2346454,0.448,0,-1,-0.00048828125,-19,-0.00927734375,2102,1.0263671875,-6,-0.3662109375,-15,-0.91552734375,4,0.244140625,-8347,-3930,153,-190,-1.043701171875,6,0.032958984375,-20937,-115.0103759765625,405,4.05
1085,39247,2346456,0.449,1,-10,-0.0048828125,-19,-0.00927734375,2055,1.00341796875,-2,-0.1220703125,-16,-0.9765625,-1,-0.06103515625,-1354,-5309,-4290,-612,-3.36181640625,-744,-4.0869140625,-6626,-36.397705078125,408,4.08
1088,39353,2346458,0.45,2,5,0.00244140625,-21,-0.01025390625,2076,1.013671875,-3,-0.18310546875,-4,-0.244140625,10,0.6103515625,-2880,4959,13339,-236,-1.29638671875,-18,-0.098876953125,25256,138.7353515625,409,4.09
1099,39755,2346468,0.455,0,-1,-0.00048828125,-21,-0.01025390625,2103,1.02685546875,-5,-0.30517578125,-14,-0.8544921875,4,0.244140625,-8375,-3926,148,-190,-1.043701171875,6,0.032958984375,-20937,-115.0103759765625,405,4.05
1102,39861,2346470,0.456,1,-9,-0.00439453125,-20,-0.009765625,2059,1.00537109375,-4,-0.244140625,-14,-0.8544921875,-2,-0.1220703125,-1378,-5314,-4301,-609,-3.3453369140625,-740,-4.06494140625,-6626,-36.397705078125,409,4.09
1105,39967,2346472,0.457,2,4,0.001953125,-21,-0.01025390625,2076,1.013671875,-3,-0.18310546875,-4,-0.244140625,10,0.6103515625,-2878,4925,13341,-236,-1.29638671875,-18,-0.098876953125,25256,138.7353515625,409,4.09
1116,40369,2346482,0.462,0,-1,-0.00048828125,-21,-0.01025390625,2103,1.02685546875,-5,-0.30517578125,-14,-0.8544921875,4,0.244140625,-8375,-3926,148,-190,-1.043701171875,6,0.032958984375,-20937,-115.0103759765625,405,4.05
1119,40475,2346484,0.463,1,-7,-0.00341796875,-16,-0.0078125,2058,1.0048828125,0,0.0,-14,-0.8544921875,-2,-0.1220703125,-1371,-5326,-4279,-609,-3.3453369140625,-740,-4.06494140625,-6626,-36.397705078125,409,4.09
1124,40655,2346488,0.465,2,5,0.00244140625,-21,-0.01025390625,2076,1.013671875,-3,-0.18310546875,-4,-0.244140625,10,0.6103515625,-2891,4901,13356,-236,-1.29638671875,-18,-0.098876953125,25256,138.7353515625,409,4.09
1133,40983,2346496,0.469,0,-1,-0.00048828125,-21,-0.01025390625,2099,1.02490234375,-6,-0.3662109375,-14,-0.8544921875,5,0.30517578125,-8358,-3934,154,-190,-1.043701171875,6,0.032958984375,-20937,-115.0103759765625,405,4.05
1138,41163,2346500,0.471,1,-8,-0.00390625,-19,-0.00927734375,2056,1.00390625,-4,-0.244140625,-14,-0.8544921875,1,0.06103515625,-1385,-5335,-4221,-606,-3.328857421875,-735,-4.0374755859375,-6627,-36.4031982421875,408,4.08
1140,41232,2346501,0.4715,2,5,0.00244140625,-21,-0.01025390625,2075,1.01318359375,-3,-0.18310546875,-4,-0.244140625,10,0.6103515625,-2890,4897,13333,-236,-1.29638671875,-18,-0.098876953125,25256,138.7353515625,409,4.09
1152,41671,2346512,0.477,0,-1,-0.00048828125,-18,-0.0087890625,2095,1.02294921875,-6,-0.3662109375,-15,-0.91552734375,5,0.30517578125,-8335,-3925,177,-190,-1.043701171875,6,0.032958984375,-20937,-115.0103759765625,405,4.05
1153,41703,2346512,0.477,1,-10,-0.0048828125,-14,-0.0068359375,2057,1.00439453125,-2,-0.1220703125,-13,-0.79345703125,-3,-0.18310546875,-1396,-5322,-4203,-606,-3.328857421875,-735,-4.0374755859375,-6627,-36.4031982421875,408,4.08
1156,41809,2346514,0.478,2,6,0.0029296875,-21,-0.01025390625,2075,1.01318359375,-3,-0.18310546875,-4,-0.244140625,10,0.6103515625,-2881,4924,13342,-236,-1.29638671875,-18,-0.098876953125,25256,138.7353515625,409,4.09
1167,42211,2346524,0.483,0,-2,-0.0009765625,-18,-0.0087890625,2103,1.02685546875,-7,-0.42724609375,-15,-0.91552734375,4,0.244140625,-8323,-3916,185,-190,-1.043701171875,6,0.032958984375,-20937,-115.0103759765625,405,4.05
1170,42317,2346526,0.484,1,-9,-0.00439453125,-17,-0.00830078125,2059,1.00537109375,-2,-0.1220703125,-14,-0.8544921875,-3,-0.18310546875,-1392,-5345,-4185,-606,-3.328857421875,-735,-4.0374755859375,-6627,-36.4031982421875,408,4.08
1173,42423,2346528,0.485,2,6,0.0029296875,-21,-0.01025390625,2075,1.01318359375,-3,-0.18310546875,-4,-0.244140625,10,0.6103515625,-2875,4949,13322,-236,-1.29638671875,-18,-0.098876953125,25256,138.7353515625,409,4.09
1184,42825,2346538,0.49,0,2,0.0009765625,-23,-0.01123046875,2102,1.0263671875,-6,-0.3662109375,-14,-0.8544921875,5,0.30517578125,-8317,-3929,217,-190,-1.043701171875,6,0.032958984375,-20937,-115.0103759765625,405,4.05
1187,42931,2346540,0.491,1,-10,-0.0048828125,-18,-0.0087890625,2063,1.00732421875,-1,-0.06103515625,-14,-0.8544921875,-1,-0.06103515625,-1416,-5335,-4221,-603,-3.3123779296875,-731,-4.0155029296875,-6627,-36.4031982421875,408,4.08
1190,43037,2346542,0.492,2,6,0.0029296875,-21,-0.01025390625,2076,1.013671875,-3,-0.18310546875,-4,-0.244140625,10,0.6103515625,-2896,4944,13333,-236,-1.29638671875,-18,-0.098876953125,25256,138.7353515625,409,4.09
1201,43439,2346552,0.497,0,2,0.0009765625,-23,-0.01123046875,2102,1.0263671875,-6,-0.3662109375,-14,-0.8544921875,5,0.30517578125,-8317,-3929,217,-190,-1.043701171875,6,0.032958984375,-20937,-115.0103759765625,405,4.05
1204,43545,2346554,0.498,1,-9,-0.00439453125,-20,-0.009765625,2055,1.00341796875,-1,-0.06103515625,-15,-0.91552734375,-3,-0.18310546875,-1405,-5337,-4249,-603,-3.3123779296875,-731,-4.0155029296875,-6627,-36.4031982421875,408,4.08
1209,43725,2346558,0.5,2,5,0.00244140625,-21,-0.01025390625,2075,1.01318359375,-3,-0.18310546875,-4,-0.244140625,10,0.6103515625,-2902,4947,13334,-236,-1.29638671875,-18,-0.098876953125,25256,138.7353515625,409,4.09
1218,44053,2346566,0.504,0,-1,-0.00048828125,-18,-0.0087890625,2099,1.02490234375,-6,-0.3662109375,-13,-0.79345703125,5,0.30517578125,-8324,-3920,170,-190,-1.043701171875,6,0.032958984375,-20937,-115.0103759765625,405,4.05
1223,44233,2346570,0.506,1,-10,-0.0048828125,-18,-0.0087890625,2057,1.00439453125,-1,-0.06103515625,-15,-0.91552734375,-3,-0.18310546875,-1392,-5332,-4293,-603,-3.3123779296875,-731,-4.0155029296875,-6627,-36.4031982421875,408,4.08
1225,44302,2346571,0.5065,2,5,0.00244140625,-21,-0.01025390625,2075,1.01318359375,-3,-0.18310546875,-4,-0.244140625,9,0.54931640625,-2915,4922,13344,-236,-1.29638671875,-18,-0.098876953125,25256,138.7353515625,409,4.09
1237,44741,2346582,0.512,0,-2,-0.0009765625,-15,-0.00732421875,2102,1.0263671875,-6,-0.3662109375,-15,-0.91552734375,6,0.3662109375,-8328,-3929,167,-190,-1.043701171875,6,0.032958984375,-20937,-115.0103759765625,405,4.05
1238,44773,2346582,0.512,1,-8,-0.00390625,-17,-0.00830078125,2063,1.00732421875,-3,-0.18310546875,-13,-0.79345703125,-2,-0.1220703125,-1378,-5317,-4299,-601,-3.3013916015625,-727,-3.9935302734375,-6627,-36.4031982421875,408,4.08
1241,44879,2346584,0.513,2,5,0.00244140625,-21,-0.01025390625,2076,1.013671875,-3,-0.18310546875,-4,-0.244140625,9,0.54931640625,-2898,4941,13367,-236,-1.29638671875,-18,-0.098876953125,25256,138.7353515625,409,4.09
1252,45281,2346594,0.518,0,-2,-0.0009765625,-18,-0.0087890625,2096,1.0234375,-6,-0.3662109375,-16,-0.9765625,3,0.18310546875,-8320,-3936,126,-190,-1.043701171875,6,0.032958984375,-20937,-115.0103759765625,404,4.04
1255,45387,2346596,0.519,1,-10,-0.0048828125,-19,-0.00927734375,2063,1.00732421875,-2,-0.1220703125,-15,-0.91552734375,-1,-0.06103515625,-1359,-5297,-4269,-601,-3.3013916015625,-727,-3.9935302734375,-6627,-36.4031982421875,408,4.08
1258,45493,2346598,0.52,2,5,0.00244140625,-21,-0.01025390625,2077,1.01416015625,-3,-0.18310546875,-4,-0.244140625,9,0.54931640625,-2899,4951,13356,-236,-1.29638671875,-18,-0.098876953125,25256,138.7353515625,410,4.1
1269,45895,2346608,0.525,0,-1,-0.00048828125,-23,-0.01123046875,2100,1.025390625,-7,-0.42724609375,-15,-0.91552734375,4,0.244140625,-8337,-3936,166,-190,-1.043701171875,6,0.032958984375,-20937,-115.0103759765625,404,4.04
1272,46001,2346610,0.526,1,-12,-0.005859375,-17,-0.00830078125,2059,1.00537109375,-3,-0.18310546875,-15,-0.91552734375,-4,-0.244140625,-1361,-5286,-4291,-601,-3.3013916015625,-727,-3.9935302734375,-6627,-36.4031982421875,408,4.08
1275,46107,2346612,0.527,2,4,0.001953125,-22,-0.0107421875,2077,1.01416015625,-3,-0.18310546875,-4,-0.244140625,9,0.54931640625,-2921,4951,13314,-236,-1.29638671875,-18,-0.098876953125,25256,138.7353515625,410,4.1
1286,46509,2346622,0.532,0,-1,-0.00048828125,-23,-0.01123046875,2100,1.025390625,-7,-0.42724609375,-15,-0.91552734375,4,0.244140625,-8337,-3936,166,-190,-1.043701171875,6,0.032958984375,-20937,-115.0103759765625,404,4.04
1289,46615,2346624,0.533,1,-10,-0.0048828125,-20,-0.009765625,2056,1.00390625,-2,-0.1220703125,-13,-0.79345703125,-2,-0.1220703125,-1347,-5282,-4255,-598,-3.284912109375,-722,-3.966064453125,-6627,-36.4031982421875,408,4.08
1294,46795,2346628,0.535,2,5,0.00244140625,-22,-0.0107421875,2077,1.01416015625,-2,-0.1220703125,-4,-0.244140625,9,0.54931640625,-2915,4949,13302,-236,-1.29638671875,-18,-0.098876953125,25256,138.7353515625,410,4.1
1303,47123,2346636,0.539,0,-1,-0.00048828125,-22,-0.0107421875,2099,1.02490234375,-5,-0.30517578125,-15,-0.91552734375,3,0.18310546875,-8315,-3926,189,-190,-1.043701171875,6,0.032958984375,-20937,-115.0103759765625,404,4.04
1308,47303,2346640,0.541,1,-5,-0.00244140625,-17,-0.00830078125,2061,1.00634765625,0,0.0,-15,-0.91552734375,-1,-0.06103515625,-1316,-5284,-4245,-598,-3.284912109375,-722,-3.966064453125,-6627,-36.4031982421875,408,4.08
1309,47335,2346640,0.541,2,5,0.00244140625,-22,-0.0107421875,2076,1.013671875,-3,-0.18310546875,-4,-0.244140625,10,0.6103515625,-2912,4945,13324,-236,-1.29638671875,-18,-0.098876953125,25256,138.7353515625,410,4.1
1322,47811,2346652,0.547,0,-3,-0.00146484375,-17,-0.00830078125,2100,1.025390625,-4,-0.244140625,-16,-0.9765625,6,0.3662109375,-8328,-3932,190,-190,-1.043701171875,6,0.032958984375,-20937,-115.0103759765625,404,4.04
1323,47843,2346652,0.547,1,-12,-0.005859375,-21,-0.01025390625,2060,1.005859375,-2,-0.1220703125,-16,-0.9765625,-5,-0.30517578125,-1355,-5288,-4266,-598,-3.284912109375,-722,-3.966064453125,-6627,-36.4031982421875,408,4.08
1326,47949,2346654,0.548,2,5,0.00244140625,-22,-0.0107421875,2076,1.013671875,-3,-0.18310546875,-4,-0.244140625,9,0.54931640625,-2916,4919,13316,-236,-1.29638671875,-18,-0.098876953125,25256,138.7353515625,410,4.1
1337,48351,2346664,0.553,0,1,0.00048828125,-18,-0.0087890625,2098,1.0244140625,-6,-0.3662109375,-14,-0.8544921875,3,0.18310546875,-8313,-3943,164,-190,-1.043701171875,6,0.032958984375,-20937,-115.0103759765625,404,4.04
1340,48457,2346666,0.554,1,-9,-0.00439453125,-16,-0.0078125,2058,1.0048828125,0,0.0,-13,-0.79345703125,0,0.0,-1350,-5282,-4253,-595,-3.2684326171875,-718,-3.944091796875,-6627,-36.4031982421875,407,4.07
1343,48563,2346668,0.555,2,6,0.0029296875,-22,-0.0107421875,2077,1.01416015625,-3,-0.18310546875,-4,-0.244140625,9,0.54931640625,-2905,4924,13322,-236,-1.29638671875,-18,-0.098876953125,25256,138.7353515625,410,4.1
1354,48965,2346678,0.56,0,-2,-0.0009765625,-22,-0.0107421875,2100,1.025390625,-7,-0.42724609375,-13,-0.79345703125,5,0.30517578125,-8308,-3960,175,-190,-1.043701171875,6,0.032958984375,-20937,-115.0103759765625,404,4.04
1357,49071,2346680,0.561,1,-6,-0.0029296875,-17,-0.00830078125,2063,1.00732421875,-1,-0.06103515625,-13,-0.79345703125,-2,-0.1220703125,-1330,-5251,-4249,-595,-3.2684326171875,-718,-3.944091796875,-6627,-36.4031982421875,407,4.07
1360,49177,2346682,0.562,2,6,0.0029296875,-22,-0.0107421875,2077,1.01416015625,-3,-0.18310546875,-4,-0.244140625,10,0.6103515625,-2908,4946,13319,-236,-1.29638671875,-18,-0.098876953125,25256,138.7353515625,410,4.1
1371,49579,2346692,0.567,0,-2,-0.0009765625,-22,-0.0107421875,2101,1.02587890625,-6,-0.3662109375,-15,-0.91552734375,4,0.244140625,-8287,-3942,165,-190,-1.043701171875,6,0.032958984375,-20937,-115.0103759765625,404,4.04
1374,49685,2346694,0.568,1,-9,-0.00439453125,-17,-0.00830078125,2057,1.00439453125,-1,-0.06103515625,-16,-0.9765625,-2,-0.1220703125,-1302,-5263,-4236,-595,-3.2684326171875,-718,-3.944091796875,-6627,-36.4031982421875,408,4.08
1379,49865,2346698,0.57,2,5,0.00244140625,-21,-0.01025390625,2076,1.013671875,-3,-0.18310546875,-5,-0.30517578125,10,0.6103515625,-2897,4948,13319,-236,-1.29638671875,-18,-0.098876953125,25256,138.7353515625,410,4.1
1388,50193,2346706,0.574,0,0,0.0,-20,-0.009765625,2106,1.0283203125,-5,-0.30517578125,-15,-0.91552734375,7,0.42724609375,-8301,-3934,117,-190,-1.043701171875,6,0.032958984375,-20937,-115.0103759765625,403,4.03
1393,50373,2346710,0.576,1,-9,-0.00439453125,-18,-0.0087890625,2056,1.00390625,1,0.06103515625,-14,-0.8544921875,-2,-0.1220703125,-1306,-5247,-4256,-592,-3.251953125,-714,-3.922119140625,-6628,-36.40869140625,408,4.08
1395,50442,2346711,0.5765,2,5,0.00244140625,-20,-0.009765625,2076,1.013671875,-3,-0.18310546875,-4,-0.244140625,10,0.6103515625,-2907,4957,13394,-236,-1.29638671875,-18,-0.098876953125,25256,138.7353515625,410,4.1
1415,51177,2346730,0.586,0,-1,-0.00048828125,-20,-0.009765625,2094,1.0224609375,-6,-0.3662109375,-14,-0.8544921875,5,0.30517578125,-8263,-3928,107,-190,-1.043701171875,6,0.032958984375,-20937,-115.0103759765625,403,4.03
1416,51209,2346730,0.586,1,-10,-0.0048828125,-19,-0.00927734375,2057,1.00439453125,0,0.0,-14,-0.8544921875,-2,-0.1220703125,-1323,-5243,-4221,-592,-3.251953125,-714,-3.922119140625,-6628,-36.40869140625,408,4.08
1423,51463,2346736,0.589,2,6,0.0029296875,-20,-0.009765625,2075,1.01318359375,-3,-0.18310546875,-4,-0.244140625,9,0.54931640625,-2874,4965,13329,-236,-1.29638671875,-18,-0.098876953125,25256,138.7353515625,410,4.1
1425,51532,2346737,0.5895,0,1,0.00048828125,-19,-0.00927734375,2098,1.0244140625,-6,-0.3662109375,-15,-0.91552734375,5,0.30517578125,-8275,-3931,133,-190,-1.043701171875,6,0.032958984375,-20937,-115.0103759765625,403,4.03
1426,51564,2346737,0.5895,1,-9,-0.00439453125,-17,-0.00830078125,2061,1.00634765625,-2,-0.1220703125,-14,-0.8544921875,0,0.0,-1302,-5242,-4226,-592,-3.251953125,-714,-3.922119140625,-6628,-36.40869140625,408,4.08
1428,51633,2346738,0.59,2,5,0.00244140625,-20,-0.009765625,2075,1.01318359375,-3,-0.18310546875,-4,-0.244140625,9,0.54931640625,-2860,4964,13333,-236,-1.29638671875,-18,-0.098876953125,25256,138.7353515625,410,4.1
1439,52035,2346748,0.595,0,-1,-0.00048828125,-20,-0.009765625,2096,1.0234375,-5,-0.30517578125,-14,-0.8544921875,5,0.30517578125,-8289,-3937,152,-190,-1.043701171875,6,0.032958984375,-20937,-115.0103759765625,403,4.03
1442,52141,2346750,0.596,1,-9,-0.00439453125,-18,-0.0087890625,2059,1.00537109375,-1,-0.06103515625,-14,-0.8544921875,-1,-0.06103515625,-1256,-5201,-4239,-589,-3.2354736328125,-710,-3.900146484375,-6628,-36.40869140625,408,4.08
1445,52247,2346752,0.597,2,5,0.00244140625,-20,-0.009765625,2076,1.013671875,-3,-0.18310546875,-4,-0.244140625,9,0.54931640625,-2875,4979,13347,-236,-1.29638671875,-18,-0.098876953125,25256,138.7353515625,410,4.1
1456,52649,2346762,0.602,0,-3,-0.00146484375,-21,-0.01025390625,2100,1.025390625,-5,-0.30517578125,-15,-0.91552734375,4,0.244140625,-8288,-3934,169,-190,-1.043701171875,6,0.032958984375,-20937,-115.0103759765625,403,4.03
1459,52755,2346764,0.603,1,-4,-0.001953125,-17,-0.00830078125,2056,1.00390625,0,0.0,-14,-0.8544921875,0,0.0,-1237,-5183,-4245,-589,-3.2354736328125,-710,-3.900146484375,-6628,-36.40869140625,408,4.08
1464,52935,2346768,0.605,2,5,0.00244140625,-21,-0.01025390625,2076,1.013671875,-3,-0.18310546875,-4,-0.244140625,9,0.54931640625,-2902,5005,13370,-236,-1.29638671875,-18,-0.098876953125,25256,138.7353515625,409,4.09
1473,53263,2346776,0.609,0,0,0.0,-20,-0.009765625,2107,1.02880859375,-7,-0.42724609375,-14,-0.8544921875,6,0.3662109375,-8287,-3941,193,-190,-1.043701171875,6,0.032958984375,-20937,-115.0103759765625,403,4.03
1478,53443,2346780,0.611,1,-9,-0.00439453125,-16,-0.0078125,2065,1.00830078125,-2,-0.1220703125,-17,-1.03759765625,-2,-0.1220703125,-1229,-5188,-4241,-589,-3.2354736328125,-710,-3.900146484375,-6628,-36.40869140625,408,4.08
1479,53475,2346781,0.6115,2,5,0.00244140625,-21,-0.01025390625,2076,1.013671875,-2,-0.1220703125,-4,-0.244140625,10,0.6103515625,-2913,5016,13380,-236,-1.29638671875,-18,-0.098876953125,25256,138.7353515625,409,4.09
1492,53951,2346792,0.617,0,1,0.00048828125,-21,-0.01025390625,2097,1.02392578125,-8,-0.48828125,-17,-1.03759765625,2,0.1220703125,-8324,-3931,177,-190,-1.043701171875,6,0.032958984375,-20937,-115.0103759765625,404,4.04
1493,53983,2346792,0.617,1,-8,-0.00390625,-17,-0.00830078125,2052,1.001953125,-3,-0.18310546875,-14,-0.8544921875,0,0.0,-1245,-5209,-4249,-586,-3.218994140625,-705,-3.8726806640625,-6628,-36.40869140625,408,4.08
1496,54089,2346794,0.618,2,6,0.0029296875,-21,-0.01025390625,2077,1.01416015625,-3,-0.18310546875,-5,-0.30517578125,10,0.6103515625,-2896,4982,13348,-236,-1.29638671875,-18,-0.098876953125,25256,138.7353515625,409,4.09
1507,54491,2346804,0.623,0,1,0.00048828125,-21,-0.01025390625,2097,1.02392578125,-8,-0.48828125,-17,-1.03759765625,2,0.1220703125,-8324,-3931,177,-190,-1.043701171875,6,0.032958984375,-20937,-115.0103759765625,404,4.04
1510,54597,2346806,0.624,1,-9,-0.00439453125,-18,-0.0087890625,2059,1.00537109375,0,0.0,-16,-0.9765625,-1,-0.06103515625,-1260,-5231,-4244,-586,-3.218994140625,-705,-3.8726806640625,-6628,-36.40869140625,408,4.08
1513,54703,2346808,0.625,2,6,0.0029296875,-22,-0.0107421875,2076,1.013671875,-3,-0.18310546875,-4,-0.244140625,10,0.6103515625,-2890,4971,13335,-236,-1.29638671875,-18,-0.098876953125,25256,138.7353515625,409,4.09
1524,55105,2346818,0.63,0,0,0.0,-20,-0.009765625,2105,1.02783203125,-4,-0.244140625,-16,-0.9765625,4,0.244140625,-8326,-3929,223,-190,-1.043701171875,6,0.032958984375,-20937,-115.0103759765625,404,4.04
1527,55211,2346820,0.631,1,-9,-0.00439453125,-18,-0.0087890625,2062,1.0068359375,2,0.1220703125,-15,-0.91552734375,-1,-0.06103515625,-1303,-5244,-4264,-584,-3.2080078125,-701,-3.8507080078125,-6628,-36.40869140625,408,4.08
1530,55317,2346822,0.632,2,6,0.0029296875,-22,-0.0107421875,2075,1.01318359375,-3,-0.18310546875,-4,-0.244140625,9,0.54931640625,-2881,4960,13309,-236,-1.29638671875,-18,-0.098876953125,25256,138.7353515625,409,4.09
1541,55719,2346832,0.637,0,-1,-0.00048828125,-20,-0.009765625,2100,1.025390625,-7,-0.42724609375,-15,-0.91552734375,6,0.3662109375,-8310,-3934,212,-190,-1.043701171875,6,0.032958984375,-20937,-115.0103759765625,404,4.04
1544,55825,2346834,0.638,1,-7,-0.00341796875,-17,-0.00830078125,2054,1.0029296875,-1,-0.06103515625,-17,-1.03759765625,-3,-0.18310546875,-1303,-5241,-4290,-584,-3.2080078125,-701,-3.8507080078125,-6628,-36.40869140625,408,4.08
1549,56005,2346838,0.64,2,5,0.00244140625,-22,-0.0107421875,2075,1.01318359375,-3,-0.18310546875,-4,-0.244140625,10,0.6103515625,-2908,4950,13299,-236,-1.29638671875,-18,-0.098876953125,25256,138.7353515625,409,4.09
1558,56333,2346846,0.644,0,-1,-0.00048828125,-21,-0.01025390625,2102,1.0263671875,-7,-0.42724609375,-13,-0.79345703125,4,0.244140625,-8292,-3936,228,-190,-1.043701171875,6,0.032958984375,-20937,-115.0103759765625,404,4.04
1563,56513,2346850,0.646,1,-11,-0.00537109375,-17,-0.00830078125,2060,1.005859375,-1,-0.06103515625,-15,-0.91552734375,-1,-0.06103515625,-1339,-5245,-4289,-584,-3.2080078125,-701,-3.8507080078125,-6628,-36.40869140625,408,4.08
1564,56545,2346851,0.6465,2,6,0.0029296875,-22,-0.0107421875,2075,1.01318359375,-3,-0.18310546875,-4,-0.244140625,9,0.54931640625,-2893,4947,13291,-236,-1.29638671875,-18,-0.098876953125,25256,138.7353515625,409,4.09
1577,57021,2346862,0.652,0,-2,-0.0009765625,-21,-0.01025390625,2104,1.02734375,-3,-0.18310546875,-14,-0.8544921875,4,0.244140625,-8280,-3955,203,-190,-1.043701171875,6,0.032958984375,-20937,-115.0103759765625,404,4.04
1578,57053,2346862,0.652,1,-9,-0.00439453125,-16,-0.0078125,2060,1.005859375,-2,-0.1220703125,-14,-0.8544921875,-1,-0.06103515625,-1318,-5271,-4322,-581,-3.1915283203125,-697,-3.8287353515625,-6628,-36.40869140625,409,4.09
1581,57159,2346864,0.653,2,6,0.0029296875,-21,-0.01025390625,2076,1.013671875,-3,-0.18310546875,-4,-0.244140625,10,0.6103515625,-2913,4941,13283,-236,-1.29638671875,-18,-0.098876953125,25256,138.7353515625,409,4.09
1592,57561,2346874,0.658,0,-2,-0.0009765625,-21,-0.01025390625,2104,1.02734375,-3,-0.18310546875,-14,-0.8544921875,4,0.244140625,-8280,-3955,203,-190,-1.043701171875,6,0.032958984375,-20937,-115.0103759765625,404,4.04
1595,57667,2346876,0.659,1,-7,-0.00341796875,-19,-0.00927734375,2060,1.005859375,-7,-0.42724609375,-14,-0.8544921875,-2,-0.1220703125,-1325,-5269,-4312,-581,-3.1915283203125,-697,-3.8287353515625,-6628,-36.40869140625,409,4.09
1598,57773,2346878,0.66,2,6,0.0029296875,-21,-0.01025390625,2077,1.01416015625,-3,-0.18310546875,-4,-0.244140625,9,0.54931640625,-2903,4959,13296,-236,-1.29638671875,-18,-0.098876953125,25256,138.7353515625,409,4.09
1609,58175,2346888,0.665,0,0,0.0,-20,-0.009765625,2097,1.02392578125,-3,-0.18310546875,-14,-0.8544921875,3,0.18310546875,-8266,-3937,186,-190,-1.043701171875,6,0.032958984375,-20938,-115.015869140625,404,4.04
1612,58281,2346890,0.666,1,-6,-0.0029296875,-11,-0.00537109375,2056,1.00390625,-1,-0.06103515625,-17,-1.03759765625,0,0.0,-1339,-5286,-4286,-581,-3.1915283203125,-697,-3.8287353515625,-6628,-36.40869140625,409,4.09
1615,58387,2346892,0.667,2,6,0.0029296875,-21,-0.01025390625,2076,1.013671875,-3,-0.18310546875,-4,-0.244140625,9,0.54931640625,-2873,4943,13291,-236,-1.29638671875,-18,-0.098876953125,25256,138.7353515625,409,4.09
1626,58789,2346902,0.672,0,0,0.0,-20,-0.009765625,2106,1.0283203125,-5,-0.30517578125,-13,-0.79345703125,6,0.3662109375,-8254,-3922,157,-190,-1.043701171875,6,0.032958984375,-20938,-115.015869140625,404,4.04
1629,58895,2346904,0.673,1,-7,-0.00341796875,-17,-0.00830078125,2066,1.0087890625,1,0.06103515625,-13,-0.79345703125,-2,-0.1220703125,-1363,-5289,-4303,-578,-3.175048828125,-693,-3.8067626953125,-6629,-36.4141845703125,409,4.09
1634,59075,2346908,0.675,2,6,0.0029296875,-20,-0.009765625,2076,1.013671875,-3,-0.18310546875,-4,-0.244140625,9,0.54931640625,-2873,4955,13248,-236,-1.29638671875,-18,-0.098876953125,25256,138.7353515625,409,4.09
1643,59403,2346916,0.679,0,0,0.0,-20,-0.009765625,2098,1.0244140625,-6,-0.3662109375,-14,-0.8544921875,6,0.3662109375,-8249,-3917,135,-190,-1.043701171875,6,0.032958984375,-20938,-115.015869140625,404,4.04
1648,59583,2346920,0.681,1,-9,-0.00439453125,-16,-0.0078125,2060,1.005859375,-3,-0.18310546875,-14,-0.8544921875,-1,-0.06103515625,-1381,-5280,-4262,-578,-3.175048828125,-693,-3.8067626953125,-6629,-36.4141845703125,409,4.09
1649,59615,2346920,0.681,2,6,0.0029296875,-20,-0.009765625,2077,1.01416015625,-3,-0.18310546875,-4,-0.244140625,9,0.54931640625,-2874,4969,13267,-236,-1.29638671875,-18,-0.098876953125,25256,138.7353515625,409,4.09
1662,60091,2346932,0.687,0,-1,-0.00048828125,-21,-0.01025390625,2096,1.0234375,-5,-0.30517578125,-13,-0.79345703125,6,0.3662109375,-8267,-3915,162,-190,-1.043701171875,6,0.032958984375,-20938,-115.015869140625,404,4.04
1663,60123,2346932,0.687,1,-8,-0.00390625,-15,-0.00732421875,2056,1.00390625,-1,-0.06103515625,-15,-0.91552734375,-2,-0.1220703125,-1367,-5256,-4285,-578,-3.175048828125,-693,-3.8067626953125,-6629,-36.4141845703125,409,4.09
1666,60229,2346934,0.688,2,5,0.00244140625,-21,-0.01025390625,2077,1.01416015625,-3,-0.18310546875,-4,-0.244140625,9,0.54931640625,-2889,4963,13284,-236,-1.29638671875,-18,-0.098876953125,25256,138.7353515625,409,4.09
1677,60631,2346944,0.693,0,-1,-0.00048828125,-21,-0.01025390625,2096,1.0234375,-5,-0.30517578125,-13,-0.79345703125,6,0.3662109375,-8267,-3915,162,-190,-1.043701171875,6,0.032958984375,-20938,-115.015869140625,404,4.04
1680,60737,2346946,0.694,1,-9,-0.00439453125,-18,-0.0087890625,2065,1.00830078125,0,0.0,-12,-0.732421875,0,0.0,-1377,-5234,-4323,-575,-3.1585693359375,-689,-3.7847900390625,-6629,-36.4141845703125,409,4.09
1683,60843,2346948,0.695,2,5,0.00244140625,-21,-0.01025390625,2075,1.01318359375,-2,-0.1220703125,-4,-0.244140625,9,0.54931640625,-2873,4938,13314,-236,-1.29638671875,-18,-0.098876953125,25256,138.7353515625,409,4.09
1694,61245,2346958,0.7,0,2,0.0009765625,-19,-0.00927734375,2100,1.025390625,-7,-0.42724609375,-15,-0.91552734375,5,0.30517578125,-8258,-3911,203,-190,-1.043701171875,6,0.032958984375,-20938,-115.015869140625,404,4.04
1697,61351,2346960,0.701,1,-11,-0.00537109375,-20,-0.009765625,2058,1.0048828125,-1,-0.06103515625,-15,-0.91552734375,-1,-0.06103515625,-1365,-5233,-4277,-575,-3.1585693359375,-689,-3.7847900390625,-6629,-36.4141845703125,409,4.09
1700,61457,2346962,0.702,2,4,0.001953125,-21,-0.01025390625,2076,1.013671875,-2,-0.1220703125,-4,-0.244140625,9,0.54931640625,-2880,4926,13287,-236,-1.29638671875,-18,-0.098876953125,25256,138.7353515625,409,4.09
1711,61859,2346972,0.707,0,0,0.0,-20,-0.009765625,2102,1.0263671875,-6,-0.3662109375,-12,-0.732421875,6,0.3662109375,-8251,-3913,209,-190,-1.043701171875,6,0.032958984375,-20938,-115.015869140625,404,4.04
1714,61965,2346974,0.708,1,-9,-0.00439453125,-20,-0.009765625,2059,1.00537109375,3,0.18310546875,-14,-0.8544921875,-2,-0.1220703125,-1392,-5236,-4271,-575,-3.1585693359375,-689,-3.7847900390625,-6629,-36.4141845703125,409,4.09
1719,62145,2346978,0.71,2,4,0.001953125,-21,-0.01025390625,2077,1.01416015625,-3,-0.18310546875,-5,-0.30517578125,10,0.6103515625,-2902,4940,13263,-236,-1.29638671875,-18,-0.098876953125,25256,138.7353515625,409,4.09
1728,62473,2346986,0.714,0,0,0.0,-19,-0.00927734375,2102,1.0263671875,-5,-0.30517578125,-13,-0.79345703125,7,0.42724609375,-8239,-3916,219,-190,-1.043701171875,6,0.032958984375,-20938,-115.015869140625,405,4.05
1733,62653,2346990,0.716,1,-6,-0.0029296875,-16,-0.0078125,2059,1.00537109375,0,0.0,-15,-0.91552734375,0,0.0,-1390,-5251,-4285,-573,-3.1475830078125,-685,-3.7628173828125,-6629,-36.4141845703125,409,4.09
1734,62685,2346991,0.7165,2,4,0.001953125,-21,-0.01025390625,2076,1.013671875,-3,-0.18310546875,-4,-0.244140625,10,0.6103515625,-2925,4960,13275,-236,-1.29638671875,-18,-0.098876953125,25256,138.7353515625,409,4.09
1747,63161,2347002,0.722,0,-2,-0.0009765625,-20,-0.009765625,2095,1.02294921875,-7,-0.42724609375,-15,-0.91552734375,7,0.42724609375,-8260,-3893,243,-190,-1.043701171875,6,0.032958984375,-20938,-115.015869140625,405,4.05
1748,63193,2347002,0.722,1,-9,-0.00439453125,-18,-0.0087890625,2057,1.00439453125,-4,-0.244140625,-14,-0.8544921875,-1,-0.06103515625,-1337,-5231,-4289,-573,-3.1475830078125,-685,-3.7628173828125,-6629,-36.4141845703125,409,4.09
1751,63299,2347004,0.723,2,4,0.001953125,-21,-0.01025390625,2076,1.013671875,-3,-0.18310546875,-4,-0.244140625,9,0.54931640625,-2937,4967,13264,-236,-1.29638671875,-18,-0.098876953125,25256,138.7353515625,409,4.09
1762,63701,2347014,0.728,0,0,0.0,-20,-0.009765625,2097,1.02392578125,-4,-0.244140625,-16,-0.9765625,5,0.30517578125,-8244,-3891,208,-190,-1.043701171875,6,0.032958984375,-20938,-115.015869140625,405,4.05
1765,63807,2347016,0.729,1,-9,-0.00439453125,-14,-0.0068359375,2055,1.00341796875,-3,-0.18310546875,-16,-0.9765625,-1,-0.06103515625,-1350,-5241,-4289,-573,-3.1475830078125,-685,-3.7628173828125,-6629,-36.4141845703125,409,4.09
1768,63913,2347018,0.73,2,5,0.00244140625,-21,-0.01025390625,2075,1.01318359375,-3,-0.18310546875,-4,-0.244140625,10,0.6103515625,-2887,4960,13264,-236,-1.29638671875,-18,-0.098876953125,25256,138.7353515625,409,4.09
1779,64315,2347028,0.735,0,-2,-0.0009765625,-18,-0.0087890625,2096,1.0234375,-5,-0.30517578125,-15,-0.91552734375,5,0.30517578125,-8269,-3880,175,-190,-1.043701171875,6,0.032958984375,-20938,-115.015869140625,406,4.06
1782,64421,2347030,0.736,1,-9,-0.00439453125,-19,-0.00927734375,2062,1.0068359375,-1,-0.06103515625,-14,-0.8544921875,3,0.18310546875,-1356,-5256,-4292,-570,-3.131103515625,-681,-3.7408447265625,-6629,-36.4141845703125,409,4.09
1785,64527,2347032,0.737,2,5,0.00244140625,-21,-0.01025390625,2075,1.01318359375,-3,-0.18310546875,-4,-0.244140625,10,0.6103515625,-2852,4959,13266,-236,-1.29638671875,-18,-0.098876953125,25256,138.7353515625,409,4.09
1796,64929,2347042,0.742,0,-1,-0.00048828125,-19,-0.00927734375,2103,1.02685546875,-5,-0.30517578125,-15,-0.91552734375,3,0.18310546875,-8300,-3904,121,-190,-1.043701171875,6,0.032958984375,-20938,-115.015869140625,406,4.06
1799,65035,2347044,0.743,1,-6,-0.0029296875,-17,-0.00830078125,2063,1.00732421875,-4,-0.244140625,-15,-0.91552734375,0,0.0,-1339,-5266,-4272,-570,-3.131103515625,-681,-3.7408447265625,-6629,-36.4141845703125,409,4.09
1804,65215,2347048,0.745,2,5,0.00244140625,-20,-0.009765625,2075,1.01318359375,-3,-0.18310546875,-4,-0.244140625,10,0.6103515625,-2895,4949,13262,-236,-1.29638671875,-18,-0.098876953125,25256,138.7353515625,409,4.09
1813,65543,2347056,0.749,0,-1,-0.00048828125,-19,-0.00927734375,2103,1.02685546875,-5,-0.30517578125,-15,-0.91552734375,3,0.18310546875,-8300,-3904,121,-190,-1.043701171875,6,0.032958984375,-20938,-115.015869140625,406,4.06
1818,65723,2347060,0.751,1,-9,-0.00439453125,-20,-0.009765625,2056,1.00390625,0,0.0,-15,-0.91552734375,-1,-0.06103515625,-1354,-5261,-4282,-570,-3.131103515625,-681,-3.7408447265625,-6629,-36.4141845703125,409,4.09
1819,65755,2347061,0.7515,2,5,0.00244140625,-21,-0.01025390625,2075,1.01318359375,-3,-0.18310546875,-4,-0.244140625,10,0.6103515625,-2879,4961,13220,-236,-1.29638671875,-18,-0.098876953125,25256,138.7353515625,409,4.09
1832,66231,2347072,0.757,0,-1,-0.00048828125,-21,-0.01025390625,2099,1.02490234375,-6,-0.3662109375,-15,-0.91552734375,4,0.244140625,-8287,-3914,166,-190,-1.043701171875,6,0.032958984375,-20938,-115.015869140625,406,4.06
1834,66300,2347073,0.7575,1,-9,-0.00439453125,-19,-0.00927734375,2060,1.005859375,-2,-0.1220703125,-16,-0.9765625,-1,-0.06103515625,-1325,-5249,-4275,-567,-3.1146240234375,-677,-3.7188720703125,-6629,-36.4141845703125,409,4.09
1836,66369,2347074,0.758,2,6,0.0029296875,-21,-0.01025390625,2075,1.01318359375,-3,-0.18310546875,-4,-0.244140625,9,0.54931640625,-2883,4962,13232,-236,-1.29638671875,-18,-0.098876953125,25256,138.7353515625,409,4.09
1847,66771,2347084,0.763,0,-1,-0.00048828125,-19,-0.00927734375,2095,1.02294921875,-4,-0.244140625,-13,-0.79345703125,6,0.3662109375,-8292,-3903,148,-190,-1.043701171875,6,0.032958984375,-20938,-115.015869140625,406,4.06
1850,66877,2347086,0.764,1,-10,-0.0048828125,-17,-0.00830078125,2060,1.005859375,-3,-0.18310546875,-14,-0.8544921875,-2,-0.1220703125,-1357,-5224,-4287,-567,-3.1146240234375,-677,-3.7188720703125,-6629,-36.4141845703125,409,4.09
1853,66983,2347088,0.765,2,6,0.0029296875,-21,-0.01025390625,2075,1.01318359375,-3,-0.18310546875,-4,-0.244140625,9,0.54931640625,-2854,4964,13218,-236,-1.29638671875,-18,-0.098876953125,25256,138.7353515625,409,4.09
1864,67385,2347098,0.77,0,1,0.00048828125,-21,-0.01025390625,2098,1.0244140625,-5,-0.30517578125,-14,-0.8544921875,2,0.1220703125,-8297,-3896,115,-190,-1.043701171875,6,0.032958984375,-20938,-115.015869140625,407,4.07
1867,67491,2347100,0.771,1,-7,-0.00341796875,-21,-0.01025390625,2058,1.0048828125,-1,-0.06103515625,-15,-0.91552734375,-2,-0.1220703125,-1344,-5225,-4269,-567,-3.1146240234375,-677,-3.7188720703125,-6629,-36.4141845703125,409,4.09
1870,67597,2347102,0.772,2,6,0.0029296875,-21,-0.01025390625,2076,1.013671875,-3,-0.18310546875,-4,-0.244140625,10,0.6103515625,-2844,4967,13237,-236,-1.29638671875,-18,-0.098876953125,25256,138.7353515625,409,4.09
1881,67999,2347112,0.777,0,0,0.0,-19,-0.00927734375,2096,1.0234375,-6,-0.3662109375,-15,-0.91552734375,5,0.30517578125,-8317,-3896,99,-190,-1.043701171875,6,0.032958984375,-20938,-115.015869140625,407,4.07
1884,68105,2347114,0.778,1,-9,-0.00439453125,-20,-0.009765625,2058,1.0048828125,-2,-0.1220703125,-14,-0.8544921875,-2,-0.1220703125,-1302,-5222,-4295,-564,-3.09814453125,-673,-3.6968994140625,-6629,-36.4141845703125,408,4.08
1889,68285,2347118,0.78,2,5,0.00244140625,-21,-0.01025390625,2077,1.01416015625,-3,-0.18310546875,-4,-0.244140625,10,0.6103515625,-2828,4972,13202,-236,-1.29638671875,-18,-0.098876953125,25256,138.7353515625,409,4.09
1898,68613,2347126,0.784,0,0,0.0,-19,-0.00927734375,2096,1.0234375,-6,-0.3662109375,-15,-0.91552734375,5,0.30517578125,-8317,-3896,99,-190,-1.043701171875,6,0.032958984375,-20938,-115.015869140625,407,4.07
1903,68793,2347130,0.786,1,-10,-0.0048828125,-14,-0.0068359375,2058,1.0048828125,-1,-0.06103515625,-14,-0.8544921875,-2,-0.1220703125,-1284,-5210,-4307,-564,-3.09814453125,-673,-3.6968994140625,-6629,-36.4141845703125,408,4.08
1904,68825,2347131,0.7865,2,5,0.00244140625,-21,-0.01025390625,2076,1.013671875,-3,-0.18310546875,-4,-0.244140625,10,0.6103515625,-2832,4974,13253,-236,-1.29638671875,-18,-0.098876953125,25256,138.7353515625,409,4.09
1917,69301,2347142,0.792,0,-1,-0.00048828125,-21,-0.01025390625,2102,1.0263671875,-6,-0.3662109375,-15,-0.91552734375,4,0.244140625,-8340,-3901,137,-190,-1.043701171875,6,0.032958984375,-20938,-115.015869140625,407,4.07
1918,69333,2347142,0.792,1,-9,-0.00439453125,-17,-0.00830078125,2060,1.005859375,0,0.0,-15,-0.91552734375,-1,-0.06103515625,-1322,-5220,-4307,-562,-3.087158203125,-669,-3.6749267578125,-6630,-36.419677734375,408,4.08
1921,69439,2347144,0.793,2,5,0.00244140625,-20,-0.009765625,2075,1.01318359375,-3,-0.18310546875,-4,-0.244140625,10,0.6103515625,-2832,4987,13232,-236,-1.29638671875,-18,-0.098876953125,25256,138.7353515625,409,4.09
1932,69841,2347154,0.798,0,0,0.0,-22,-0.0107421875,2099,1.02490234375,-6,-0.3662109375,-13,-0.79345703125,4,0.244140625,-8330,-3907,126,-190,-1.043701171875,6,0.032958984375,-20938,-115.015869140625,407,4.07
1935,69947,2347156,0.799,1,-10,-0.0048828125,-17,-0.00830078125,2057,1.00439453125,-3,-0.18310546875,-15,-0.91552734375,-3,-0.18310546875,-1337,-5223,-4316,-562,-3.087158203125,-669,-3.6749267578125,-6630,-36.419677734375,408,4.08
1938,70053,2347158,0.8,2,5,0.00244140625,-21,-0.01025390625,2075,1.01318359375,-3,-0.18310546875,-4,-0.244140625,9,0.54931640625,-2880,4995,13290,-236,-1.29638671875,-18,-0.098876953125,25256,138.7353515625,409,4.09
1949,70455,2347168,0.805,0,-1,-0.00048828125,-20,-0.009765625,2101,1.02587890625,-3,-0.18310546875,-14,-0.8544921875,3,0.18310546875,-8336,-3881,128,-190,-1.043701171875,6,0.032958984375,-20938,-115.015869140625,407,4.07
1952,70561,2347170,0.806,1,-10,-0.0048828125,-19,-0.00927734375,2060,1.005859375,1,0.06103515625,-12,-0.732421875,-2,-0.1220703125,-1346,-5241,-4320,-562,-3.087158203125,-669,-3.6749267578125,-6630,-36.419677734375,408,4.08
1955,70667,2347172,0.807,2,4,0.001953125,-21,-0.01025390625,2076,1.013671875,-3,-0.18310546875,-4,-0.244140625,9,0.54931640625,-2856,5010,13290,-236,-1.29638671875,-18,-0.098876953125,25256,138.7353515625,409,4.09
1966,71069,2347182,0.812,0,1,0.00048828125,-19,-0.00927734375,2102,1.0263671875,-7,-0.42724609375,-14,-0.8544921875,7,0.42724609375,-8317,-3900,118,-190,-1.043701171875,6,0.032958984375,-20938,-115.015869140625,407,4.07
1969,71175,2347184,0.813,1,-10,-0.0048828125,-21,-0.01025390625,2060,1.005859375,-1,-0.06103515625,-14,-0.8544921875,-2,-0.1220703125,-1362,-5218,-4298,-559,-3.0706787109375,-665,-3.6529541015625,-6630,-36.419677734375,408,4.08
1974,71355,2347188,0.815,2,5,0.00244140625,-22,-0.0107421875,2075,1.01318359375,-3,-0.18310546875,-4,-0.244140625,9,0.54931640625,-2875,4995,13286,-236,-1.29638671875,-18,-0.098876953125,25256,138.7353515625,409,4.09
1983,71683,2347196,0.819,0,1,0.00048828125,-19,-0.00927734375,2102,1.0263671875,-7,-0.42724609375,-14,-0.8544921875,7,0.42724609375,-8317,-3900,118,-190,-1.043701171875,6,0.032958984375,-20938,-115.015869140625,407,4.07
1988,71863,2347200,0.821,1,-10,-0.0048828125,-18,-0.0087890625,2057,1.00439453125,-2,-0.1220703125,-15,-0.91552734375,-1,-0.06103515625,-1392,-5235,-4266,-559,-3.0706787109375,-665,-3.6529541015625,-6630,-36.419677734375,408,4.08
1989,71895,2347200,0.821,2,5,0.00244140625,-22,-0.0107421875,2076,1.013671875,-3,-0.18310546875,-4,-0.244140625,10,0.6103515625,-2886,4997,13269,-236,-1.29638671875,-18,-0.098876953125,25256,138.7353515625,410,4.1
2003,72408,2347213,0.8275,0,1,0.00048828125,-20,-0.009765625,2102,1.0263671875,-6,-0.3662109375,-14,-0.8544921875,7,0.42724609375,-8302,-3887,127,-190,-1.043701171875,6,0.032958984375,-20938,-115.015869140625,407,4.07
2004,72440,2347213,0.8275,1,-9,-0.00439453125,-18,-0.0087890625,2057,1.00439453125,-5,-0.30517578125,-13,-0.79345703125,-2,-0.1220703125,-1388,-5243,-4247,-559,-3.0706787109375,-665,-3.6529541015625,-6630,-36.419677734375,408,4.08
2006,72509,2347214,0.828,2,6,0.0029296875,-21,-0.01025390625,2075,1.01318359375,-3,-0.18310546875,-4,-0.244140625,10,0.6103515625,-2861,5001,13271,-236,-1.29638671875,-18,-0.098876953125,25256,138.7353515625,410,4.1
2017,72911,2347224,0.833,0,0,0.0,-18,-0.0087890625,2099,1.02490234375,-5,-0.30517578125,-14,-0.8544921875,3,0.18310546875,-8304,-3897,123,-190,-1.043701171875,6,0.032958984375,-20938,-115.015869140625,407,4.07
2020,73017,2347226,0.834,1,-11,-0.00537109375,-17,-0.00830078125,2059,1.00537109375,-1,-0.06103515625,-14,-0.8544921875,-2,-0.1220703125,-1404,-5259,-4248,-557,-3.0596923828125,-661,-3.6309814453125,-6630,-36.419677734375,408,4.08
2023,73123,2347228,0.835,2,5,0.00244140625,-21,-0.01025390625,2075,1.01318359375,-3,-0.18310546875,-4,-0.244140625,10,0.6103515625,-2833,5019,13302,-236,-1.29638671875,-18,-0.098876953125,25256,138.7353515625,410,4.1
2034,73525,2347238,0.84,0,-1,-0.00048828125,-22,-0.0107421875,2097,1.02392578125,-4,-0.244140625,-14,-0.8544921875,4,0.244140625,-8292,-3909,141,-190,-1.043701171875,6,0.032958984375,-20938,-115.015869140625,406,4.06
2037,73631,2347240,0.841,1,-10,-0.0048828125,-23,-0.01123046875,2059,1.00537109375,-5,-0.30517578125,-13,-0.79345703125,1,0.06103515625,-1430,-5258,-4212,-557,-3.0596923828125,-661,-3.6309814453125,-6630,-36.419677734375,408,4.08
2040,73737,2347242,0.842,2,5,0.00244140625,-21,-0.01025390625,2075,1.01318359375,-3,-0.18310546875,-4,-0.244140625,9,0.54931640625,-2837,5024,13300,-236,-1.29638671875,-18,-0.098876953125,25256,138.7353515625,410,4.1
2051,74139,2347252,0.847,0,0,0.0,-20,-0.009765625,2097,1.02392578125,-7,-0.42724609375,-14,-0.8544921875,5,0.30517578125,-8266,-3895,140,-190,-1.043701171875,6,0.032958984375,-20938,-115.015869140625,406,4.06
2054,74245,2347254,0.848,1,-10,-0.0048828125,-17,-0.00830078125,2061,1.00634765625,-6,-0.3662109375,-16,-0.9765625,-3,-0.18310546875,-1444,-5228,-4210,-557,-3.0596923828125,-661,-3.6309814453125,-6630,-36.419677734375,408,4.08
2059,74425,2347258,0.85,2,5,0.00244140625,-21,-0.01025390625,2075,1.01318359375,-2,-0.1220703125,-4,-0.244140625,9,0.54931640625,-2821,4999,13289,-236,-1.29638671875,-18,-0.098876953125,25256,138.7353515625,410,4.1
2068,74753,2347266,0.854,0,-1,-0.00048828125,-20,-0.009765625,2103,1.02685546875,-6,-0.3662109375,-14,-0.8544921875,5,0.30517578125,-8269,-3883,112,-190,-1.043701171875,6,0.032958984375,-20938,-115.015869140625,406,4.06
2073,74933,2347270,0.856,1,-10,-0.0048828125,-17,-0.00830078125,2055,1.00341796875,-2,-0.1220703125,-13,-0.79345703125,-2,-0.1220703125,-1434,-5243,-4212,-554,-3.043212890625,-657,-3.6090087890625,-6630,-36.419677734375,408,4.08
2075,75002,2347271,0.8565,2,6,0.0029296875,-21,-0.01025390625,2076,1.013671875,-3,-0.18310546875,-4,-0.244140625,10,0.6103515625,-2806,4997,13266,-236,-1.29638671875,-18,-0.098876953125,25256,138.7353515625,410,4.1
2088,75478,2347283,0.8625,0,0,0.0,-21,-0.01025390625,2104,1.02734375,-7,-0.42724609375,-13,-0.79345703125,5,0.30517578125,-8299,-3856,108,-190,-1.043701171875,6,0.032958984375,-20938,-115.015869140625,406,4.06
2089,75510,2347283,0.8625,1,-9,-0.00439453125,-17,-0.00830078125,2060,1.005859375,0,0.0,-12,-0.732421875,0,0.0,-1405,-5247,-4236,-554,-3.043212890625,-657,-3.6090087890625,-6630,-36.419677734375,407,4.07
2091,75579,2347284,0.863,2,5,0.00244140625,-21,-0.01025390625,2076,1.013671875,-3,-0.18310546875,-4,-0.244140625,10,0.6103515625,-2804,5016,13253,-236,-1.29638671875,-18,-0.098876953125,25256,138.7353515625,410,4.1
2102,75981,2347294,0.868,0,0,0.0,-21,-0.01025390625,2096,1.0234375,-4,-0.244140625,-16,-0.9765625,4,0.244140625,-8305,-3868,99,-190,-1.043701171875,6,0.032958984375,-20938,-115.015869140625,406,4.06
2105,76087,2347296,0.869,1,-9,-0.00439453125,-16,-0.0078125,2055,1.00341796875,-5,-0.30517578125,-15,-0.91552734375,-3,-0.18310546875,-1390,-5261,-4210,-554,-3.043212890625,-657,-3.6090087890625,-6630,-36.419677734375,408,4.08
2108,76193,2347298,0.87,2,5,0.00244140625,-20,-0.009765625,2076,1.013671875,-3,-0.18310546875,-3,-0.18310546875,9,0.54931640625,-2795,5033,13240,-236,-1.29638671875,-18,-0.098876953125,25256,138.7353515625,410,4.1
2119,76595,2347308,0.875,0,-2,-0.0009765625,-22,-0.0107421875,2098,1.0244140625,-4,-0.244140625,-14,-0.8544921875,6,0.3662109375,-8300,-3876,159,-190,-1.043701171875,6,0.032958984375,-20938,-115.015869140625,406,4.06
2122,76701,2347310,0.876,1,-9,-0.00439453125,-16,-0.0078125,2064,1.0078125,-1,-0.06103515625,-13,-0.79345703125,1,0.06103515625,-1371,-5246,-4189,-551,-3.0267333984375,-653,-3.5870361328125,-6630,-36.419677734375,408,4.08
2125,76807,2347312,0.877,2,5,0.00244140625,-20,-0.009765625,2076,1.013671875,-3,-0.18310546875,-4,-0.244140625,9,0.54931640625,-2811,5041,13245,-236,-1.29638671875,-18,-0.098876953125,25256,138.7353515625,410,4.1
2136,77209,2347322,0.882,0,-2,-0.0009765625,-18,-0.0087890625,2102,1.0263671875,-5,-0.30517578125,-12,-0.732421875,7,0.42724609375,-8310,-3898,137,-190,-1.043701171875,6,0.032958984375,-20938,-115.015869140625,406,4.06
2139,77315,2347324,0.883,1,-11,-0.00537109375,-16,-0.0078125,2062,1.0068359375,-2,-0.1220703125,-13,-0.79345703125,-2,-0.1220703125,-1376,-5238,-4194,-551,-3.0267333984375,-653,-3.5870361328125,-6630,-36.419677734375,408,4.08
2144,77495,2347328,0.885,2,5,0.00244140625,-20,-0.009765625,2076,1.013671875,-2,-0.1220703125,-4,-0.244140625,10,0.6103515625,-2814,5036,13231,-236,-1.29638671875,-18,-0.098876953125,25256,138.7353515625,410,4.1
2153,77823,2347336,0.889,0,-1,-0.00048828125,-22,-0.0107421875,2105,1.02783203125,-6,-0.3662109375,-16,-0.9765625,3,0.18310546875,-8309,-3895,155,-190,-1.043701171875,6,0.032958984375,-20938,-115.015869140625,406,4.06
2159,78040,2347341,0.8915,1,-10,-0.0048828125,-23,-0.01123046875,2062,1.0068359375,-4,-0.244140625,-14,-0.8544921875,0,0.0,-1380,-5264,-4225,-551,-3.0267333984375,-653,-3.5870361328125,-6630,-36.419677734375,408,4.08
2160,78072,2347341,0.8915,2,5,0.00244140625,-21,-0.01025390625,2076,1.013671875,-2,-0.1220703125,-4,-0.244140625,10,0.6103515625,-2846,5028,13253,-236,-1.29638671875,-18,-0.098876953125,25256,138.7353515625,410,4.1
2173,78548,2347353,0.8975,0,1,0.00048828125,-20,-0.009765625,2101,1.02587890625,-5,-0.30517578125,-13,-0.79345703125,6,0.3662109375,-8301,-3889,132,-190,-1.043701171875,6,0.032958984375,-20938,-115.015869140625,406,4.06
2174,78580,2347353,0.8975,1,-10,-0.0048828125,-16,-0.0078125,2058,1.0048828125,-1,-0.06103515625,-15,-0.91552734375,-1,-0.06103515625,-1392,-5262,-4248,-549,-3.0157470703125,-649,-3.5650634765625,-6630,-36.419677734375,408,4.08
2176,78649,2347354,0.898,2,5,0.00244140625,-20,-0.009765625,2076,1.013671875,-3,-0.18310546875,-4,-0.244140625,10,0.6103515625,-2867,4989,13232,-236,-1.29638671875,-18,-0.098876953125,25256,138.7353515625,410,4.1
2187,79051,2347364,0.903,0,-2,-0.0009765625,-18,-0.0087890625,2096,1.0234375,-7,-0.42724609375,-15,-0.91552734375,5,0.30517578125,-8321,-3882,126,-190,-1.043701171875,6,0.032958984375,-20938,-115.015869140625,406,4.06
2190,79157,2347366,0.904,1,-8,-0.00390625,-16,-0.0078125,2056,1.00390625,-1,-0.06103515625,-14,-0.8544921875,-2,-0.1220703125,-1379,-5244,-4285,-549,-3.0157470703125,-649,-3.5650634765625,-6630,-36.419677734375,408,4.08
2193,79263,2347368,0.905,2,5,0.00244140625,-21,-0.01025390625,2075,1.01318359375,-3,-0.18310546875,-4,-0.244140625,10,0.6103515625,-2863,4977,13239,-235,-1.2908935546875,-18,-0.098876953125,25256,138.7353515625,409,4.09
2204,79665,2347378,0.91,0,-2,-0.0009765625,-18,-0.0087890625,2096,1.0234375,-7,-0.42724609375,-15,-0.91552734375,5,0.30517578125,-8321,-3882,126,-190,-1.043701171875,6,0.032958984375,-20938,-115.015869140625,406,4.06
2207,79771,2347380,0.911,1,-8,-0.00390625,-18,-0.0087890625,2063,1.00732421875,0,0.0,-14,-0.8544921875,-2,-0.1220703125,-1391,-5242,-4314,-549,-3.0157470703125,-649,-3.5650634765625,-6630,-36.419677734375,408,4.08
2210,79877,2347382,0.912,2,5,0.00244140625,-21,-0.01025390625,2075,1.01318359375,-3,-0.18310546875,-4,-0.244140625,10,0.6103515625,-2859,4961,13264,-235,-1.2908935546875,-18,-0.098876953125,25256,138.7353515625,409,4.09
2221,80279,2347392,0.917,0,-6,-0.0029296875,-19,-0.00927734375,2100,1.025390625,-5,-0.30517578125,-17,-1.03759765625,5,0.30517578125,-8317,-3880,134,-190,-1.043701171875,6,0.032958984375,-20938,-115.015869140625,406,4.06
2224,80385,2347394,0.918,1,-7,-0.00341796875,-16,-0.0078125,2058,1.0048828125,-1,-0.06103515625,-14,-0.8544921875,-1,-0.06103515625,-1383,-5252,-4317,-546,-2.999267578125,-645,-3.5430908203125,-6630,-36.419677734375,408,4.08
2229,80565,2347398,0.92,2,4,0.001953125,-21,-0.01025390625,2076,1.013671875,-3,-0.18310546875,-4,-0.244140625,9,0.54931640625,-2858,4957,13260,-235,-1.2908935546875,-18,-0.098876953125,25256,138.7353515625,409,4.09
2238,80893,2347406,0.924,0,-2,-0.0009765625,-20,-0.009765625,2104,1.02734375,-6,-0.3662109375,-14,-0.8544921875,5,0.30517578125,-8320,-3904,169,-190,-1.043701171875,6,0.032958984375,-20938,-115.015869140625,406,4.06
2244,81110,2347411,0.9265,1,-8,-0.00390625,-21,-0.01025390625,2061,1.00634765625,0,0.0,-15,-0.91552734375,-2,-0.1220703125,-1390,-5265,-4293,-546,-2.999267578125,-645,-3.5430908203125,-6630,-36.419677734375,408,4.08
2245,81142,2347411,0.9265,2,5,0.00244140625,-21,-0.01025390625,2076,1.013671875,-3,-0.18310546875,-4,-0.244140625,10,0.6103515625,-2866,4976,13307,-235,-1.2908935546875,-18,-0.098876953125,25256,138.7353515625,409,4.09
2258,81618,2347423,0.9325,0,2,0.0009765625,-23,-0.01123046875,2101,1.02587890625,-6,-0.3662109375,-15,-0.91552734375,5,0.30517578125,-8330,-3932,149,-190,-1.043701171875,6,0.032958984375,-20938,-115.015869140625,405,4.05
2259,81650,2347423,0.9325,1,-10,-0.0048828125,-13,-0.00634765625,2057,1.00439453125,-1,-0.06103515625,-14,-0.8544921875,-1,-0.06103515625,-1410,-5279,-4292,-546,-2.999267578125,-645,-3.5430908203125,-6630,-36.419677734375,408,4.08
2261,81719,2347424,0.933,2,6,0.0029296875,-21,-0.01025390625,2076,1.013671875,-3,-0.18310546875,-4,-0.244140625,9,0.54931640625,-2872,4951,13298,-235,-1.2908935546875,-18,-0.098876953125,25256,138.7353515625,409,4.09
2272,82121,2347434,0.938,0,1,0.00048828125,-20,-0.009765625,2096,1.0234375,-6,-0.3662109375,-13,-0.79345703125,5,0.30517578125,-8330,-3915,135,-190,-1.043701171875,6,0.032958984375,-20938,-115.015869140625,405,4.05
2275,82227,2347436,0.939,1,-6,-0.0029296875,-18,-0.0087890625,2056,1.00390625,0,0.0,-16,-0.9765625,0,0.0,-1403,-5261,-4312,-544,-2.98828125,-641,-3.5211181640625,-6630,-36.419677734375,408,4.08
2278,82333,2347438,0.94,2,6,0.0029296875,-21,-0.01025390625,2076,1.013671875,-3,-0.18310546875,-4,-0.244140625,9,0.54931640625,-2875,4945,13340,-235,-1.2908935546875,-18,-0.098876953125,25256,138.7353515625,409,4.09
2289,82735,2347448,0.945,0,1,0.00048828125,-20,-0.009765625,2096,1.0234375,-6,-0.3662109375,-13,-0.79345703125,5,0.30517578125,-8330,-3915,135,-190,-1.043701171875,6,0.032958984375,-20938,-115.015869140625,405,4.05
2292,82841,2347450,0.946,1,-6,-0.0029296875,-16,-0.0078125,2059,1.00537109375,1,0.06103515625,-14,-0.8544921875,-1,-0.06103515625,-1414,-5264,-4297,-544,-2.98828125,-641,-3.5211181640625,-6630,-36.419677734375,408,4.08
2295,82947,2347452,0.947,2,6,0.0029296875,-20,-0.009765625,2075,1.01318359375,-3,-0.18310546875,-4,-0.244140625,9,0.54931640625,-2865,4962,13326,-235,-1.2908935546875,-18,-0.098876953125,25256,138.7353515625,409,4.09
2306,83349,2347462,0.952,0,-2,-0.0009765625,-20,-0.009765625,2099,1.02490234375,-4,-0.244140625,-16,-0.9765625,5,0.30517578125,-8341,-3922,140,-190,-1.043701171875,6,0.032958984375,-20938,-115.015869140625,405,4.05
2309,83455,2347464,0.953,1,-8,-0.00390625,-15,-0.00732421875,2059,1.00537109375,-2,-0.1220703125,-14,-0.8544921875,-5,-0.30517578125,-1404,-5276,-4276,-541,-2.9718017578125,-637,-3.4991455078125,-6631,-36.4251708984375,409,4.09
2315,83672,2347469,0.9555,2,6,0.0029296875,-20,-0.009765625,2076,1.013671875,-3,-0.18310546875,-4,-0.244140625,9,0.54931640625,-2870,4968,13331,-235,-1.2908935546875,-18,-0.098876953125,25256,138.7353515625,409,4.09
2323,83963,2347476,0.959,0,-2,-0.0009765625,-21,-0.01025390625,2103,1.02685546875,-7,-0.42724609375,-13,-0.79345703125,4,0.244140625,-8336,-3921,188,-190,-1.043701171875,6,0.032958984375,-20938,-115.015869140625,405,4.05
2329,84180,2347481,0.9615,1,-9,-0.00439453125,-17,-0.00830078125,2058,1.0048828125,-3,-0.18310546875,-13,-0.79345703125,1,0.06103515625,-1414,-5279,-4313,-541,-2.9718017578125,-637,-3.4991455078125,-6631,-36.4251708984375,409,4.09
2330,84212,2347481,0.9615,2,6,0.0029296875,-21,-0.01025390625,2077,1.01416015625,-3,-0.18310546875,-4,-0.244140625,9,0.54931640625,-2876,4974,13311,-235,-1.2908935546875,-18,-0.098876953125,25256,138.7353515625,409,4.09
2351,84984,2347501,0.9715,0,-1,-0.00048828125,-19,-0.00927734375,2096,1.0234375,-8,-0.48828125,-17,-1.03759765625,3,0.18310546875,-8332,-3923,158,-190,-1.043701171875,6,0.032958984375,-20938,-115.015869140625,405,4.05
2352,85016,2347501,0.9715,1,-10,-0.0048828125,-16,-0.0078125,2059,1.00537109375,-1,-0.06103515625,-15,-0.91552734375,-2,-0.1220703125,-1421,-5284,-4292,-541,-2.9718017578125,-637,-3.4991455078125,-6631,-36.4251708984375,409,4.09
2360,85307,2347508,0.975,2,5,0.00244140625,-21,-0.01025390625,2076,1.013671875,-3,-0.18310546875,-4,-0.244140625,10,0.6103515625,-2872,4963,13311,-235,-1.2908935546875,-18,-0.098876953125,25256,138.7353515625,409,4.09
2372,85746,2347519,0.9805,0,0,0.0,-17,-0.00830078125,2098,1.0244140625,-5,-0.30517578125,-13,-0.79345703125,7,0.42724609375,-8339,-3933,63,-190,-1.043701171875,6,0.032958984375,-20938,-115.015869140625,405,4.05
2374,85815,2347520,0.981,1,-7,-0.00341796875,-17,-0.00830078125,2060,1.005859375,2,0.1220703125,-14,-0.8544921875,-2,-0.1220703125,-1352,-5304,-4270,-539,-2.9608154296875,-634,-3.482666015625,-6631,-36.4251708984375,409,4.09
2377,85921,2347522,0.982,2,5,0.00244140625,-21,-0.01025390625,2075,1.01318359375,-3,-0.18310546875,-3,-0.18310546875,9,0.54931640625,-2871,4960,13299,-235,-1.2908935546875,-18,-0.098876953125,25256,138.7353515625,409,4.09
2388,86323,2347532,0.987,0,-2,-0.0009765625,-19,-0.00927734375,2095,1.02294921875,-7,-0.42724609375,-14,-0.8544921875,4,0.244140625,-8328,-3941,0,-190,-1.043701171875,6,0.032958984375,-20938,-115.015869140625,405,4.05
2391,86429,2347534,0.988,1,-9,-0.00439453125,-17,-0.00830078125,2060,1.005859375,-2,-0.1220703125,-14,-0.8544921875,-1,-0.06103515625,-1368,-5322,-4248,-539,-2.9608154296875,-634,-3.482666015625,-6631,-36.4251708984375,409,4.09
2394,86535,2347536,0.989,2,5,0.00244140625,-21,-0.01025390625,2076,1.013671875,-3,-0.18310546875,-3,-0.18310546875,10,0.6103515625,-2871,4954,13294,-235,-1.2908935546875,-18,-0.098876953125,25256,138.7353515625,409,4.09
2405,86937,2347546,0.994,0,-6,-0.0029296875,-18,-0.0087890625,2101,1.02587890625,-5,-0.30517578125,-15,-0.91552734375,4,0.244140625,-8335,-3952,32,-190,-1.043701171875,6,0.032958984375,-20938,-115.015869140625,405,4.05
2408,87043,2347548,0.995,1,-9,-0.00439453125,-20,-0.009765625,2066,1.0087890625,2,0.1220703125,-16,-0.9765625,-3,-0.18310546875,-1372,-5335,-4246,-536,-2.9443359375,-630,-3.460693359375,-6631,-36.4251708984375,409,4.09
2413,87223,2347552,0.997,2,5,0.00244140625,-20,-0.009765625,2075,1.01318359375,-3,-0.18310546875,-4,-0.244140625,10,0.6103515625,-2852,4983,13314,-235,-1.2908935546875,-18,-0.098876953125,25256,138.7353515625,409,4.09
2422,87551,2347560,1.001,0,-1,-0.00048828125,-19,-0.00927734375,2099,1.02490234375,-5,-0.30517578125,-13,-0.79345703125,5,0.30517578125,-8334,-3927,95,-190,-1.043701171875,6,0.032958984375,-20938,-115.015869140625,405,4.05
2428,87768,2347565,1.0035,1,-9,-0.00439453125,-17,-0.00830078125,2058,1.0048828125,0,0.0,-15,-0.91552734375,-2,-0.1220703125,-1376,-5346,-4245,-536,-2.9443359375,-630,-3.460693359375,-6631,-36.4251708984375,409,4.09
2429,87800,2347565,1.0035,2,5,0.00244140625,-20,-0.009765625,2075,1.01318359375,-3,-0.18310546875,-4,-0.244140625,9,0.54931640625,-2878,4962,13323,-235,-1.2908935546875,-18,-0.098876953125,25256,138.7353515625,409,4.09
2442,88276,2347577,1.0095,0,-1,-0.00048828125,-18,-0.0087890625,2102,1.0263671875,-6,-0.3662109375,-14,-0.8544921875,5,0.30517578125,-8327,-3921,66,-190,-1.043701171875,6,0.032958984375,-20938,-115.015869140625,405,4.05
2443,88308,2347577,1.0095,1,-9,-0.00439453125,-15,-0.00732421875,2061,1.00634765625,-4,-0.244140625,-13,-0.79345703125,2,0.1220703125,-1361,-5337,-4222,-536,-2.9443359375,-630,-3.460693359375,-6631,-36.4251708984375,409,4.09
2445,88377,2347578,1.01,2,5,0.00244140625,-21,-0.01025390625,2074,1.0126953125,-3,-0.18310546875,-4,-0.244140625,9,0.54931640625,-2857,4955,13355,-235,-1.2908935546875,-18,-0.098876953125,25256,138.7353515625,409,4.09
2456,88779,2347588,1.015,0,2,0.0009765625,-23,-0.01123046875,2100,1.025390625,-7,-0.42724609375,-13,-0.79345703125,6,0.3662109375,-8331,-3934,62,-190,-1.043701171875,6,0.032958984375,-20938,-115.015869140625,405,4.05
2459,88885,2347590,1.016,1,-9,-0.00439453125,-16,-0.0078125,2059,1.00537109375,2,0.1220703125,-14,-0.8544921875,-2,-0.1220703125,-1352,-5321,-4223,-533,-2.9278564453125,-626,-3.438720703125,-6631,-36.4251708984375,409,4.09
2462,88991,2347592,1.017,2,6,0.0029296875,-21,-0.01025390625,2075,1.01318359375,-3,-0.18310546875,-4,-0.244140625,9,0.54931640625,-2845,4938,13352,-235,-1.2908935546875,-18,-0.098876953125,25256,138.7353515625,409,4.09
2473,89393,2347602,1.022,0,0,0.0,-20,-0.009765625,2098,1.0244140625,-4,-0.244140625,-15,-0.91552734375,6,0.3662109375,-8306,-3944,63,-190,-1.043701171875,6,0.032958984375,-20939,-115.0213623046875,404,4.04
2476,89499,2347604,1.023,1,-11,-0.00537109375,-21,-0.01025390625,2059,1.00537109375,1,0.06103515625,-15,-0.91552734375,-2,-0.1220703125,-1358,-5292,-4211,-533,-2.9278564453125,-626,-3.438720703125,-6631,-36.4251708984375,409,4.09
2479,89605,2347606,1.024,2,5,0.00244140625,-21,-0.01025390625,2075,1.01318359375,-2,-0.1220703125,-5,-0.30517578125,9,0.54931640625,-2868,4945,13349,-235,-1.2908935546875,-18,-0.098876953125,25256,138.7353515625,409,4.09
2490,90007,2347616,1.029,0,0,0.0,-18,-0.0087890625,2095,1.02294921875,-6,-0.3662109375,-14,-0.8544921875,5,0.30517578125,-8308,-3963,95,-190,-1.043701171875,6,0.032958984375,-20939,-115.0213623046875,404,4.04
2493,90113,2347618,1.03,1,-9,-0.00439453125,-18,-0.0087890625,2057,1.00439453125,1,0.06103515625,-15,-0.91552734375,-3,-0.18310546875,-1330,-5282,-4223,-533,-2.9278564453125,-626,-3.438720703125,-6631,-36.4251708984375,409,4.09
2498,90293,2347622,1.032,2,5,0.00244140625,-20,-0.009765625,2074,1.0126953125,-3,-0.18310546875,-4,-0.244140625,10,0.6103515625,-2868,4934,13330,-235,-1.2908935546875,-18,-0.098876953125,25256,138.7353515625,409,4.09
2507,90621,2347630,1.036,0,0,0.0,-18,-0.0087890625,2095,1.02294921875,-6,-0.3662109375,-14,-0.8544921875,5,0.30517578125,-8308,-3963,95,-190,-1.043701171875,6,0.032958984375,-20939,-115.0213623046875,404,4.04
2513,90838,2347635,1.0385,1,-9,-0.00439453125,-17,-0.00830078125,2058,1.0048828125,0,0.0,-12,-0.732421875,-2,-0.1220703125,-1344,-5286,-4235,-531,-2.9168701171875,-622,-3.416748046875,-6631,-36.4251708984375,409,4.09
2514,90870,2347635,1.0385,2,5,0.00244140625,-20,-0.009765625,2075,1.01318359375,-3,-0.18310546875,-4,-0.244140625,9,0.54931640625,-2843,4931,13326,-235,-1.2908935546875,-18,-0.098876953125,25256,138.7353515625,409,4.09
2527,91346,2347647,1.0445,0,-1,-0.00048828125,-20,-0.009765625,2102,1.0263671875,-4,-0.244140625,-13,-0.79345703125,4,0.244140625,-8293,-3970,113,-190,-1.043701171875,6,0.032958984375,-20939,-115.0213623046875,404,4.04
2528,91378,2347647,1.0445,1,-9,-0.00439453125,-19,-0.00927734375,2062,1.0068359375,-3,-0.18310546875,-14,-0.8544921875,-2,-0.1220703125,-1356,-5264,-4242,-531,-2.9168701171875,-622,-3.416748046875,-6631,-36.4251708984375,409,4.09
2530,91447,2347648,1.045,2,5,0.00244140625,-20,-0.009765625,2076,1.013671875,-2,-0.1220703125,-4,-0.244140625,9,0.54931640625,-2847,4921,13309,-235,-1.2908935546875,-18,-0.098876953125,25256,138.7353515625,409,4.09
2541,91849,2347658,1.05,0,1,0.00048828125,-20,-0.009765625,2097,1.02392578125,-5,-0.30517578125,-14,-0.8544921875,3,0.18310546875,-8296,-3957,127,-190,-1.043701171875,6,0.032958984375,-20939,-115.0213623046875,404,4.04
2544,91955,2347660,1.051,1,-7,-0.00341796875,-17,-0.00830078125,2055,1.00341796875,-2,-0.1220703125,-14,-0.8544921875,-1,-0.06103515625,-1351,-5260,-4253,-531,-2.9168701171875,-622,-3.416748046875,-6631,-36.4251708984375,409,4.09
2547,92061,2347662,1.052,2,5,0.00244140625,-21,-0.01025390625,2077,1.01416015625,-3,-0.18310546875,-4,-0.244140625,9,0.54931640625,-2838,4930,13318,-235,-1.2908935546875,-18,-0.098876953125,25256,138.7353515625,409,4.09
2558,92463,2347672,1.057,0,0,0.0,-22,-0.0107421875,2098,1.0244140625,-7,-0.42724609375,-15,-0.91552734375,3,0.18310546875,-8280,-3947,113,-190,-1.043701171875,6,0.032958984375,-20939,-115.0213623046875,404,4.04
2561,92569,2347674,1.058,1,-11,-0.00537109375,-17,-0.00830078125,2059,1.00537109375,-1,-0.06103515625,-14,-0.8544921875,-2,-0.1220703125,-1330,-5245,-4281,-529,-2.9058837890625,-619,-3.4002685546875,-6631,-36.4251708984375,409,4.09
2564,92675,2347676,1.059,2,4,0.001953125,-20,-0.009765625,2077,1.01416015625,-3,-0.18310546875,-4,-0.244140625,9,0.54931640625,-2847,4947,13330,-235,-1.2908935546875,-18,-0.098876953125,25256,138.7353515625,409,4.09
2575,93077,2347686,1.064,0,-2,-0.0009765625,-19,-0.00927734375,2097,1.02392578125,-6,-0.3662109375,-12,-0.732421875,4,0.244140625,-8269,-3939,115,-190,-1.043701171875,6,0.032958984375,-20939,-115.0213623046875,404,4.04
2578,93183,2347688,1.065,1,-10,-0.0048828125,-20,-0.009765625,2062,1.0068359375,-2,-0.1220703125,-15,-0.91552734375,-3,-0.18310546875,-1314,-5239,-4271,-529,-2.9058837890625,-619,-3.4002685546875,-6631,-36.4251708984375,409,4.09
2584,93400,2347693,1.0675,2,4,0.001953125,-21,-0.01025390625,2076,1.013671875,-2,-0.1220703125,-4,-0.244140625,10,0.6103515625,-2839,4917,13389,-235,-1.2908935546875,-18,-0.098876953125,25256,138.7353515625,409,4.09
2592,93691,2347700,1.071,0,-2,-0.0009765625,-19,-0.00927734375,2097,1.02392578125,-6,-0.3662109375,-12,-0.732421875,4,0.244140625,-8269,-3939,115,-190,-1.043701171875,6,0.032958984375,-20939,-115.0213623046875,404,4.04
2598,93908,2347705,1.0735,1,-10,-0.0048828125,-21,-0.01025390625,2059,1.00537109375,-4,-0.244140625,-15,-0.91552734375,-2,-0.1220703125,-1328,-5237,-4282,-529,-2.9058837890625,-619,-3.4002685546875,-6631,-36.4251708984375,408,4.08
2599,93940,2347705,1.0735,2,4,0.001953125,-21,-0.01025390625,2076,1.013671875,-3,-0.18310546875,-4,-0.244140625,9,0.54931640625,-2839,4920,13412,-235,-1.2908935546875,-18,-0.098876953125,25256,138.7353515625,409,4.09
2612,94416,2347717,1.0795,0,1,0.00048828125,-22,-0.0107421875,2101,1.02587890625,-7,-0.42724609375,-13,-0.79345703125,4,0.244140625,-8291,-3931,149,-190,-1.043701171875,6,0.032958984375,-20939,-115.0213623046875,403,4.03
2613,94448,2347717,1.0795,1,-8,-0.00390625,-18,-0.0087890625,2060,1.005859375,-1,-0.06103515625,-16,-0.9765625,0,0.0,-1349,-5240,-4326,-526,-2.889404296875,-615,-3.3782958984375,-6631,-36.4251708984375,408,4.08
2615,94517,2347718,1.08,2,5,0.00244140625,-21,-0.01025390625,2077,1.01416015625,-3,-0.18310546875,-4,-0.244140625,10,0.6103515625,-2829,4921,13408,-235,-1.2908935546875,-18,-0.098876953125,25256,138.7353515625,409,4.09
2626,94919,2347728,1.085,0,-1,-0.00048828125,-18,-0.0087890625,2101,1.02587890625,-5,-0.30517578125,-13,-0.79345703125,7,0.42724609375,-8288,-3917,157,-190,-1.043701171875,6,0.032958984375,-20939,-115.0213623046875,403,4.03
2629,95025,2347730,1.086,1,-11,-0.00537109375,-15,-0.00732421875,2058,1.0048828125,1,0.06103515625,-14,-0.8544921875,-2,-0.1220703125,-1335,-5226,-4299,-526,-2.889404296875,-615,-3.3782958984375,-6631,-36.4251708984375,408,4.08
2632,95131,2347732,1.087,2,5,0.00244140625,-21,-0.01025390625,2077,1.01416015625,-3,-0.18310546875,-4,-0.244140625,10,0.6103515625,-2838,4927,13431,-235,-1.2908935546875,-18,-0.098876953125,25256,138.7353515625,409,4.09
2643,95533,2347742,1.092,0,-3,-0.00146484375,-18,-0.0087890625,2100,1.025390625,-5,-0.30517578125,-14,-0.8544921875,5,0.30517578125,-8324,-3930,153,-190,-1.043701171875,6,0.032958984375,-20939,-115.0213623046875,403,4.03
2646,95639,2347744,1.093,1,-10,-0.0048828125,-17,-0.00830078125,2061,1.00634765625,-3,-0.18310546875,-15,-0.91552734375,-2,-0.1220703125,-1350,-5224,-4261,-526,-2.889404296875,-615,-3.3782958984375,-6631,-36.4251708984375,408,4.08
2649,95745,2347746,1.094,2,5,0.00244140625,-20,-0.009765625,2076,1.013671875,-3,-0.18310546875,-4,-0.244140625,10,0.6103515625,-2829,4902,13401,-235,-1.2908935546875,-18,-0.098876953125,25256,138.7353515625,409,4.09
2660,96147,2347756,1.099,0,-1,-0.00048828125,-19,-0.00927734375,2102,1.0263671875,-5,-0.30517578125,-13,-0.79345703125,5,0.30517578125,-8335,-3940,176,-190,-1.043701171875,6,0.032958984375,-20939,-115.0213623046875,403,4.03
2663,96253,2347758,1.1,1,-9,-0.00439453125,-14,-0.0068359375,2061,1.00634765625,0,0.0,-15,-0.91552734375,1,0.06103515625,-1367,-5235,-4266,-524,-2.87841796875,-611,-3.3563232421875,-6631,-36.4251708984375,408,4.08
2669,96470,2347763,1.1025,2,5,0.00244140625,-20,-0.009765625,2076,1.013671875,-3,-0.18310546875,-4,-0.244140625,9,0.54931640625,-2831,4913,13399,-235,-1.2908935546875,-18,-0.098876953125,25256,138.7353515625,409,4.09
2677,96761,2347770,1.106,0,-1,-0.00048828125,-19,-0.00927734375,2102,1.0263671875,-5,-0.30517578125,-13,-0.79345703125,5,0.30517578125,-8335,-3940,176,-190,-1.043701171875,6,0.032958984375,-20939,-115.0213623046875,403,4.03
2683,96978,2347775,1.1085,1,-9,-0.00439453125,-18,-0.0087890625,2058,1.0048828125,-6,-0.3662109375,-14,-0.8544921875,-1,-0.06103515625,-1386,-5236,-4223,-524,-2.87841796875,-611,-3.3563232421875,-6631,-36.4251708984375,408,4.08
2684,97010,2347775,1.1085,2,5,0.00244140625,-21,-0.01025390625,2077,1.01416015625,-3,-0.18310546875,-4,-0.244140625,10,0.6103515625,-2839,4950,13369,-235,-1.2908935546875,-18,-0.098876953125,25256,138.7353515625,409,4.09
2697,97486,2347787,1.1145,0,-1,-0.00048828125,-23,-0.01123046875,2105,1.02783203125,-8,-0.48828125,-13,-0.79345703125,5,0.30517578125,-8301,-3928,138,-190,-1.043701171875,6,0.032958984375,-20939,-115.0213623046875,403,4.03
2698,97518,2347787,1.1145,1,-8,-0.00390625,-18,-0.0087890625,2060,1.005859375,3,0.18310546875,-17,-1.03759765625,-2,-0.1220703125,-1358,-5260,-4242,-521,-2.8619384765625,-608,-3.33984375,-6631,-36.4251708984375,408,4.08
2700,97587,2347788,1.115,2,5,0.00244140625,-20,-0.009765625,2077,1.01416015625,-3,-0.18310546875,-4,-0.244140625,10,0.6103515625,-2834,4968,13352,-235,-1.2908935546875,-18,-0.098876953125,25256,138.7353515625,409,4.09
2711,97989,2347798,1.12,0,0,0.0,-22,-0.0107421875,2092,1.021484375,-4,-0.244140625,-13,-0.79345703125,6,0.3662109375,-8302,-3942,124,-190,-1.043701171875,6,0.032958984375,-20939,-115.0213623046875,404,4.04
2714,98095,2347800,1.121,1,-9,-0.00439453125,-16,-0.0078125,2057,1.00439453125,-2,-0.1220703125,-14,-0.8544921875,-2,-0.1220703125,-1350,-5256,-4244,-521,-2.8619384765625,-608,-3.33984375,-6631,-36.4251708984375,408,4.08
2717,98201,2347802,1.122,2,5,0.00244140625,-21,-0.01025390625,2075,1.01318359375,-3,-0.18310546875,-4,-0.244140625,10,0.6103515625,-2805,4978,13352,-235,-1.2908935546875,-18,-0.098876953125,25256,138.7353515625,410,4.1
2728,98603,2347812,1.127,0,-4,-0.001953125,-23,-0.01123046875,2099,1.02490234375,-6,-0.3662109375,-14,-0.8544921875,6,0.3662109375,-8302,-3963,160,-190,-1.043701171875,6,0.032958984375,-20939,-115.0213623046875,404,4.04
2731,98709,2347814,1.128,1,-11,-0.00537109375,-18,-0.0087890625,2061,1.00634765625,-2,-0.1220703125,-13,-0.79345703125,-3,-0.18310546875,-1378,-5258,-4220,-521,-2.8619384765625,-608,-3.33984375,-6631,-36.4251708984375,408,4.08
2734,98815,2347816,1.129,2,5,0.00244140625,-21,-0.01025390625,2075,1.01318359375,-2,-0.1220703125,-4,-0.244140625,10,0.6103515625,-2782,4972,13367,-235,-1.2908935546875,-18,-0.098876953125,25256,138.7353515625,410,4.1
2745,99217,2347826,1.134,0,1,0.00048828125,-19,-0.00927734375,2101,1.02587890625,-7,-0.42724609375,-16,-0.9765625,5,0.30517578125,-8301,-3958,167,-190,-1.043701171875,6,0.032958984375,-20939,-115.0213623046875,404,4.04
2748,99323,2347828,1.135,1,-9,-0.00439453125,-16,-0.0078125,2061,1.00634765625,-2,-0.1220703125,-14,-0.8544921875,0,0.0,-1365,-5265,-4252,-519,-2.8509521484375,-604,-3.31787109375,-6632,-36.4306640625,408,4.08
2754,99540,2347833,1.1375,2,5,0.00244140625,-21,-0.01025390625,2075,1.01318359375,-3,-0.18310546875,-4,-0.244140625,9,0.54931640625,-2777,4971,13385,-235,-1.2908935546875,-18,-0.098876953125,25256,138.7353515625,410,4.1
2762,99831,2347840,1.141,0,-3,-0.00146484375,-21,-0.01025390625,2102,1.0263671875,-7,-0.42724609375,-15,-0.91552734375,4,0.244140625,-8300,-3933,199,-190,-1.043701171875,6,0.032958984375,-20939,-115.0213623046875,404,4.04
2768,100048,2347845,1.1435,1,-9,-0.00439453125,-20,-0.009765625,2058,1.0048828125,-4,-0.244140625,-14,-0.8544921875,-2,-0.1220703125,-1372,-5263,-4258,-519,-2.8509521484375,-604,-3.31787109375,-6632,-36.4306640625,408,4.08
2769,100080,2347845,1.1435,2,5,0.00244140625,-21,-0.01025390625,2077,1.01416015625,-2,-0.1220703125,-4,-0.244140625,10,0.6103515625,-2808,4982,13334,-235,-1.2908935546875,-18,-0.098876953125,25256,138.7353515625,410,4.1
2782,100556,2347857,1.1495,0,1,0.00048828125,-19,-0.00927734375,2100,1.025390625,-5,-0.30517578125,-14,-0.8544921875,5,0.30517578125,-8286,-3938,213,-190,-1.043701171875,6,0.032958984375,-20939,-115.0213623046875,404,4.04
2783,100588,2347857,1.1495,1,-10,-0.0048828125,-17,-0.00830078125,2057,1.00439453125,0,0.0,-13,-0.79345703125,-3,-0.18310546875,-1370,-5254,-4243,-519,-2.8509521484375,-604,-3.31787109375,-6632,-36.4306640625,408,4.08
2785,100657,2347858,1.15,2,5,0.00244140625,-22,-0.0107421875,2076,1.013671875,-3,-0.18310546875,-4,-0.244140625,9,0.54931640625,-2845,4977,13338,-235,-1.2908935546875,-18,-0.098876953125,25256,138.7353515625,410,4.1
2796,101059,2347868,1.155,0,0,0.0,-19,-0.00927734375,2099,1.02490234375,-5,-0.30517578125,-15,-0.91552734375,6,0.3662109375,-8276,-3936,200,-190,-1.043701171875,6,0.032958984375,-20939,-115.0213623046875,404,4.04
2799,101165,2347870,1.156,1,-10,-0.0048828125,-18,-0.0087890625,2059,1.00537109375,3,0.18310546875,-15,-0.91552734375,-1,-0.06103515625,-1354,-5254,-4187,-516,-2.83447265625,-600,-3.2958984375,-6632,-36.4306640625,407,4.07
2802,101271,2347872,1.157,2,5,0.00244140625,-21,-0.01025390625,2075,1.01318359375,-3,-0.18310546875,-4,-0.244140625,10,0.6103515625,-2849,4961,13295,-235,-1.2908935546875,-18,-0.098876953125,25256,138.7353515625,410,4.1
2813,101673,2347882,1.162,0,2,0.0009765625,-22,-0.0107421875,2103,1.02685546875,-7,-0.42724609375,-15,-0.91552734375,5,0.30517578125,-8269,-3930,199,-190,-1.043701171875,6,0.032958984375,-20939,-115.0213623046875,404,4.04
2816,101779,2347884,1.163,1,-9,-0.00439453125,-17,-0.00830078125,2061,1.00634765625,-3,-0.18310546875,-14,-0.8544921875,0,0.0,-1339,-5266,-4210,-516,-2.83447265625,-600,-3.2958984375,-6632,-36.4306640625,407,4.07
2819,101885,2347886,1.164,2,5,0.00244140625,-21,-0.01025390625,2075,1.01318359375,-3,-0.18310546875,-4,-0.244140625,9,0.54931640625,-2843,4935,13293,-235,-1.2908935546875,-18,-0.098876953125,25256,138.7353515625,410,4.1
2830,102287,2347896,1.169,0,-2,-0.0009765625,-19,-0.00927734375,2096,1.0234375,-4,-0.244140625,-15,-0.91552734375,4,0.244140625,-8276,-3927,187,-190,-1.043701171875,6,0.032958984375,-20939,-115.0213623046875,404,4.04
2833,102393,2347898,1.17,1,-9,-0.00439453125,-18,-0.0087890625,2059,1.00537109375,-1,-0.06103515625,-15,-0.91552734375,-2,-0.1220703125,-1359,-5268,-4232,-516,-2.83447265625,-600,-3.2958984375,-6632,-36.4306640625,407,4.07
2839,102610,2347903,1.1725,2,4,0.001953125,-21,-0.01025390625,2077,1.01416015625,-3,-0.18310546875,-4,-0.244140625,9,0.54931640625,-2833,4945,13298,-235,-1.2908935546875,-18,-0.098876953125,25256,138.7353515625,410,4.1
2847,102901,2347910,1.176,0,-4,-0.001953125,-22,-0.0107421875,2106,1.0283203125,-6,-0.3662109375,-15,-0.91552734375,4,0.244140625,-8308,-3939,206,-191,-1.0491943359375,6,0.032958984375,-20939,-115.0213623046875,404,4.04
2853,103118,2347915,1.1785,1,-8,-0.00390625,-18,-0.0087890625,2061,1.00634765625,-4,-0.244140625,-15,-0.91552734375,-2,-0.1220703125,-1365,-5280,-4196,-514,-2.823486328125,-597,-3.2794189453125,-6632,-36.4306640625,407,4.07
2854,103150,2347915,1.1785,2,5,0.00244140625,-21,-0.01025390625,2077,1.01416015625,-3,-0.18310546875,-3,-0.18310546875,9,0.54931640625,-2838,4952,13354,-235,-1.2908935546875,-18,-0.098876953125,25256,138.7353515625,410,4.1
2867,103626,2347927,1.1845,0,-1,-0.00048828125,-17,-0.00830078125,2097,1.02392578125,-8,-0.48828125,-14,-0.8544921875,4,0.244140625,-8303,-3937,191,-191,-1.0491943359375,6,0.032958984375,-20940,-115.02685546875,404,4.04
2868,103658,2347927,1.1845,1,-8,-0.00390625,-18,-0.0087890625,2056,1.00390625,-4,-0.244140625,-13,-0.79345703125,-3,-0.18310546875,-1379,-5269,-4186,-514,-2.823486328125,-597,-3.2794189453125,-6632,-36.4306640625,407,4.07
2870,103727,2347928,1.185,2,5,0.00244140625,-21,-0.01025390625,2076,1.013671875,-3,-0.18310546875,-4,-0.244140625,10,0.6103515625,-2834,4934,13383,-235,-1.2908935546875,-18,-0.098876953125,25256,138.7353515625,410,4.1
2881,104129,2347938,1.19,0,1,0.00048828125,-22,-0.0107421875,2103,1.02685546875,-6,-0.3662109375,-14,-0.8544921875,4,0.244140625,-8287,-3930,192,-191,-1.0491943359375,6,0.032958984375,-20940,-115.02685546875,404,4.04
2884,104235,2347940,1.191,1,-8,-0.00390625,-17,-0.00830078125,2059,1.00537109375,-4,-0.244140625,-15,-0.91552734375,-4,-0.244140625,-1402,-5251,-4170,-514,-2.823486328125,-597,-3.2794189453125,-6632,-36.4306640625,407,4.07
2887,104341,2347942,1.192,2,5,0.00244140625,-21,-0.01025390625,2074,1.0126953125,-3,-0.18310546875,-4,-0.244140625,10,0.6103515625,-2851,4956,13399,-235,-1.2908935546875,-18,-0.098876953125,25256,138.7353515625,410,4.1
2898,104743,2347952,1.197,0,1,0.00048828125,-22,-0.0107421875,2103,1.02685546875,-6,-0.3662109375,-14,-0.8544921875,4,0.244140625,-8287,-3930,192,-191,-1.0491943359375,6,0.032958984375,-20940,-115.02685546875,404,4.04
2901,104849,2347954,1.198,1,-10,-0.0048828125,-18,-0.0087890625,2057,1.00439453125,0,0.0,-15,-0.91552734375,-1,-0.06103515625,-1411,-5244,-4163,-512,-2.8125,-593,-3.2574462890625,-6632,-36.4306640625,407,4.07
2904,104955,2347956,1.199,2,6,0.0029296875,-21,-0.01025390625,2074,1.0126953125,-3,-0.18310546875,-4,-0.244140625,10,0.6103515625,-2852,4978,13397,-235,-1.2908935546875,-18,-0.098876953125,25256,138.7353515625,410,4.1
2915,105357,2347966,1.204,0,0,0.0,-23,-0.01123046875,2095,1.02294921875,-5,-0.30517578125,-14,-0.8544921875,3,0.18310546875,-8285,-3944,188,-191,-1.0491943359375,6,0.032958984375,-20940,-115.02685546875,404,4.04
2918,105463,2347968,1.205,1,-9,-0.00439453125,-19,-0.00927734375,2058,1.0048828125,-1,-0.06103515625,-14,-0.8544921875,-2,-0.1220703125,-1391,-5235,-4192,-512,-2.8125,-593,-3.2574462890625,-6632,-36.4306640625,407,4.07
2924,105680,2347973,1.2075,2,6,0.0029296875,-21,-0.01025390625,2075,1.01318359375,-3,-0.18310546875,-4,-0.244140625,10,0.6103515625,-2849,4962,13424,-235,-1.2908935546875,-18,-0.098876953125,25256,138.7353515625,410,4.1
2932,105971,2347980,1.211,0,-3,-0.00146484375,-18,-0.0087890625,2100,1.025390625,-7,-0.42724609375,-16,-0.9765625,5,0.30517578125,-8271,-3942,174,-191,-1.0491943359375,6,0.032958984375,-20940,-115.02685546875,404,4.04
2938,106188,2347985,1.2135,1,-10,-0.0048828125,-19,-0.00927734375,2062,1.0068359375,-1,-0.06103515625,-14,-0.8544921875,-1,-0.06103515625,-1387,-5237,-4232,-512,-2.8125,-593,-3.2574462890625,-6632,-36.4306640625,406,4.06
2939,106220,2347985,1.2135,2,6,0.0029296875,-20,-0.009765625,2074,1.0126953125,-3,-0.18310546875,-3,-0.18310546875,9,0.54931640625,-2842,4971,13438,-235,-1.2908935546875,-18,-0.098876953125,25256,138.7353515625,409,4.09
2952,106696,2347997,1.2195,0,-2,-0.0009765625,-17,-0.00830078125,2102,1.0263671875,-5,-0.30517578125,-13,-0.79345703125,5,0.30517578125,-8239,-3946,176,-191,-1.0491943359375,6,0.032958984375,-20940,-115.02685546875,404,4.04
2953,106728,2347997,1.2195,1,-7,-0.00341796875,-16,-0.0078125,2060,1.005859375,-1,-0.06103515625,-15,-0.91552734375,-3,-0.18310546875,-1359,-5235,-4223,-509,-2.7960205078125,-590,-3.240966796875,-6632,-36.4306640625,406,4.06
2955,106797,2347998,1.22,2,5,0.00244140625,-21,-0.01025390625,2075,1.01318359375,-2,-0.1220703125,-4,-0.244140625,10,0.6103515625,-2837,4978,13453,-235,-1.2908935546875,-18,-0.098876953125,25256,138.7353515625,409,4.09
2966,107199,2348008,1.225,0,-3,-0.00146484375,-19,-0.00927734375,2102,1.0263671875,-6,-0.3662109375,-14,-0.8544921875,5,0.30517578125,-8243,-3935,202,-191,-1.0491943359375,6,0.032958984375,-20940,-115.02685546875,404,4.04
2969,107305,2348010,1.226,1,-7,-0.00341796875,-15,-0.00732421875,2059,1.00537109375,-2,-0.1220703125,-13,-0.79345703125,-1,-0.06103515625,-1331,-5230,-4218,-509,-2.7960205078125,-590,-3.240966796875,-6632,-36.4306640625,406,4.06
2972,107411,2348012,1.227,2,5,0.00244140625,-21,-0.01025390625,2075,1.01318359375,-3,-0.18310546875,-4,-0.244140625,10,0.6103515625,-2840,4982,13420,-235,-1.2908935546875,-18,-0.098876953125,25256,138.7353515625,409,4.09
2983,107813,2348022,1.232,0,-3,-0.00146484375,-19,-0.00927734375,2102,1.0263671875,-6,-0.3662109375,-14,-0.8544921875,5,0.30517578125,-8243,-3935,202,-191,-1.0491943359375,6,0.032958984375,-20940,-115.02685546875,404,4.04
2986,107919,2348024,1.233,1,-8,-0.00390625,-18,-0.0087890625,2061,1.00634765625,-3,-0.18310546875,-14,-0.8544921875,-2,-0.1220703125,-1333,-5226,-4201,-509,-2.7960205078125,-590,-3.240966796875,-6632,-36.4306640625,406,4.06
2989,108025,2348026,1.234,2,5,0.00244140625,-21,-0.01025390625,2074,1.0126953125,-3,-0.18310546875,-4,-0.244140625,10,0.6103515625,-2848,5003,13416,-235,-1.2908935546875,-18,-0.098876953125,25256,138.7353515625,409,4.09
3000,108427,2348036,1.239,0,-1,-0.00048828125,-19,-0.00927734375,2100,1.025390625,-6,-0.3662109375,-13,-0.79345703125,4,0.244140625,-8259,-3935,212,-191,-1.0491943359375,6,0.032958984375,-20940,-115.02685546875,404,4.04
3003,108533,2348038,1.24,1,-11,-0.00537109375,-14,-0.0068359375,2058,1.0048828125,-1,-0.06103515625,-13,-0.79345703125,-1,-0.06103515625,-1349,-5243,-4194,-507,-2.7850341796875,-586,-3.218994140625,-6632,-36.4306640625,406,4.06
3009,108750,2348043,1.2425,2,5,0.00244140625,-21,-0.01025390625,2075,1.01318359375,-3,-0.18310546875,-4,-0.244140625,10,0.6103515625,-2851,4993,13409,-235,-1.2908935546875,-18,-0.098876953125,25256,138.7353515625,409,4.09
3017,109041,2348050,1.246,0,-1,-0.00048828125,-20,-0.009765625,2100,1.025390625,-5,-0.30517578125,-14,-0.8544921875,3,0.18310546875,-8258,-3939,229,-191,-1.0491943359375,6,0.032958984375,-20940,-115.02685546875,404,4.04
3023,109258,2348055,1.2485,1,-6,-0.0029296875,-17,-0.00830078125,2061,1.00634765625,-1,-0.06103515625,-12,-0.732421875,-2,-0.1220703125,-1331,-5239,-4186,-507,-2.7850341796875,-586,-3.218994140625,-6632,-36.4306640625,406,4.06
3024,109290,2348055,1.2485,2,4,0.001953125,-20,-0.009765625,2074,1.0126953125,-3,-0.18310546875,-4,-0.244140625,9,0.54931640625,-2854,5027,13416,-235,-1.2908935546875,-18,-0.098876953125,25256,138.7353515625,409,4.09
3037,109766,2348067,1.2545,0,0,0.0,-21,-0.01025390625,2101,1.02587890625,-4,-0.244140625,-14,-0.8544921875,4,0.244140625,-8274,-3946,212,-191,-1.0491943359375,6,0.032958984375,-20940,-115.02685546875,404,4.04
3038,109798,2348067,1.2545,1,-9,-0.00439453125,-17,-0.00830078125,2060,1.005859375,-1,-0.06103515625,-14,-0.8544921875,-2,-0.1220703125,-1363,-5240,-4213,-507,-2.7850341796875,-586,-3.218994140625,-6632,-36.4306640625,406,4.06
3040,109867,2348068,1.255,2,5,0.00244140625,-19,-0.00927734375,2074,1.0126953125,-2,-0.1220703125,-5,-0.30517578125,9,0.54931640625,-2837,5040,13400,-235,-1.2908935546875,-18,-0.098876953125,25256,138.7353515625,409,4.09
3051,110269,2348078,1.26,0,0,0.0,-20,-0.009765625,2098,1.0244140625,-6,-0.3662109375,-12,-0.732421875,5,0.30517578125,-8293,-3953,240,-191,-1.0491943359375,6,0.032958984375,-20940,-115.02685546875,404,4.04
3054,110375,2348080,1.261,1,-8,-0.00390625,-18,-0.0087890625,2060,1.005859375,-1,-0.06103515625,-13,-0.79345703125,-1,-0.06103515625,-1394,-5218,-4194,-505,-2.7740478515625,-583,-3.2025146484375,-6632,-36.4306640625,406,4.06
3057,110481,2348082,1.262,2,5,0.00244140625,-19,-0.00927734375,2075,1.01318359375,-3,-0.18310546875,-4,-0.244140625,10,0.6103515625,-2817,5039,13383,-235,-1.2908935546875,-18,-0.098876953125,25256,138.7353515625,409,4.09
3068,110883,2348092,1.267,0,3,0.00146484375,-22,-0.0107421875,2096,1.0234375,-7,-0.42724609375,-18,-1.0986328125,4,0.244140625,-8309,-3958,218,-191,-1.0491943359375,6,0.032958984375,-20940,-115.02685546875,403,4.03
3071,110989,2348094,1.268,1,-9,-0.00439453125,-17,-0.00830078125,2056,1.00390625,-2,-0.1220703125,-13,-0.79345703125,-2,-0.1220703125,-1382,-5226,-4159,-505,-2.7740478515625,-583,-3.2025146484375,-6632,-36.4306640625,406,4.06
3074,111095,2348096,1.269,2,7,0.00341796875,-20,-0.009765625,2076,1.013671875,-3,-0.18310546875,-5,-0.30517578125,9,0.54931640625,-2835,5050,13397,-235,-1.2908935546875,-18,-0.098876953125,25256,138.7353515625,409,4.09
3085,111497,2348106,1.274,0,-3,-0.00146484375,-20,-0.009765625,2103,1.02685546875,-6,-0.3662109375,-16,-0.9765625,6,0.3662109375,-8302,-3938,229,-191,-1.0491943359375,6,0.032958984375,-20940,-115.02685546875,403,4.03
3088,111603,2348108,1.275,1,-6,-0.0029296875,-19,-0.00927734375,2065,1.00830078125,-3,-0.18310546875,-16,-0.9765625,-1,-0.06103515625,-1389,-5243,-4160,-505,-2.7740478515625,-583,-3.2025146484375,-6632,-36.4306640625,406,4.06
3094,111820,2348113,1.2775,2,6,0.0029296875,-20,-0.009765625,2075,1.01318359375,-3,-0.18310546875,-5,-0.30517578125,9,0.54931640625,-2850,5055,13419,-235,-1.2908935546875,-18,-0.098876953125,25256,138.7353515625,409,4.09
3102,112111,2348120,1.281,0,-2,-0.0009765625,-16,-0.0078125,2101,1.02587890625,-6,-0.3662109375,-15,-0.91552734375,4,0.244140625,-8306,-3948,197,-191,-1.0491943359375,6,0.032958984375,-20940,-115.02685546875,403,4.03
3108,112328,2348125,1.2835,1,-8,-0.00390625,-18,-0.0087890625,2063,1.00732421875,-1,-0.06103515625,-14,-0.8544921875,0,0.0,-1379,-5286,-4164,-502,-2.757568359375,-579,-3.1805419921875,-6632,-36.4306640625,407,4.07
3109,112360,2348125,1.2835,2,5,0.00244140625,-20,-0.009765625,2075,1.01318359375,-3,-0.18310546875,-4,-0.244140625,9,0.54931640625,-2862,5031,13416,-235,-1.2908935546875,-18,-0.098876953125,25256,138.7353515625,409,4.09
3122,112836,2348137,1.2895,0,-1,-0.00048828125,-19,-0.00927734375,2096,1.0234375,-6,-0.3662109375,-13,-0.79345703125,7,0.42724609375,-8277,-3964,238,-191,-1.0491943359375,6,0.032958984375,-20940,-115.02685546875,403,4.03
3123,112868,2348137,1.2895,1,-8,-0.00390625,-16,-0.0078125,2055,1.00341796875,-1,-0.06103515625,-15,-0.91552734375,-2,-0.1220703125,-1401,-5290,-4167,-502,-2.757568359375,-579,-3.1805419921875,-6632,-36.4306640625,407,4.07
3125,112937,2348138,1.29,2,5,0.00244140625,-20,-0.009765625,2075,1.01318359375,-3,-0.18310546875,-3,-0.18310546875,9,0.54931640625,-2850,5012,13367,-235,-1.2908935546875,-18,-0.098876953125,25256,138.7353515625,409,4.09
3136,113339,2348148,1.295,0,0,0.0,-19,-0.00927734375,2098,1.0244140625,-7,-0.42724609375,-12,-0.732421875,3,0.18310546875,-8270,-3953,252,-191,-1.0491943359375,6,0.032958984375,-20940,-115.02685546875,403,4.03
3139,113445,2348150,1.296,1,-12,-0.005859375,-20,-0.009765625,2061,1.00634765625,-3,-0.18310546875,-15,-0.91552734375,-1,-0.06103515625,-1393,-5268,-4211,-500,-2.74658203125,-576,-3.1640625,-6632,-36.4306640625,407,4.07
3142,113551,2348152,1.297,2,5,0.00244140625,-20,-0.009765625,2075,1.01318359375,-3,-0.18310546875,-3,-0.18310546875,10,0.6103515625,-2859,4985,13346,-235,-1.2908935546875,-18,-0.098876953125,25256,138.7353515625,409,4.09
