time_s,emg_record_index,emg_sequence,emg_tick_ms,ch1_raw_uV,ch2_raw_uV,ch1_filtered_uV,ch2_filtered_uV,imu0_source_offset_ms,imu0_accel_x_g,imu0_accel_y_g,imu0_accel_z_g,imu0_gyro_x_dps,imu0_gyro_y_dps,imu0_gyro_z_dps,imu0_mag_x_raw,imu0_mag_y_raw,imu0_mag_z_raw,imu0_angle_x_deg,imu0_angle_y_deg,imu0_angle_z_deg,imu0_battery_voltage,imu1_source_offset_ms,imu1_accel_x_g,imu1_accel_y_g,imu1_accel_z_g,imu1_gyro_x_dps,imu1_gyro_y_dps,imu1_gyro_z_dps,imu1_mag_x_raw,imu1_mag_y_raw,imu1_mag_z_raw,imu1_angle_x_deg,imu1_angle_y_deg,imu1_angle_z_deg,imu1_battery_voltage,imu2_source_offset_ms,imu2_accel_x_g,imu2_accel_y_g,imu2_accel_z_g,imu2_gyro_x_dps,imu2_gyro_y_dps,imu2_gyro_z_dps,imu2_mag_x_raw,imu2_mag_y_raw,imu2_mag_z_raw,imu2_angle_x_deg,imu2_angle_y_deg,imu2_angle_z_deg,imu2_battery_voltage
1.022,2000,2000,289430,18163.6796875,25666.9609375,5.462084233219647,20.091848220315864,11.00000000000012,-0.009748186383928527,0.9838692801339285,-0.17996651785714282,-1.9705636160714324,-1.8615722656249967,-0.5078996930803599,-4213.071428571428,2598.75,-1184.857142857143,100.52764892578125,1.5025765555245414,-171.08106340680803,3.4839285714285717,1.000000000000112,0.034565172697368356,0.9757144325657895,-0.21785053453947376,-2.849378083881577,1.5708521792763077,0.9605006167763142,-156.1578947368419,2407.3684210526317,5132.578947368422,102.9494114925987,-0.8028692948190894,133.06206954152958,3.55,9.000000000000119,-0.07986582880434784,0.9170983355978262,0.3930027173913043,0.5705460258152143,-0.687308933423916,0.7085385529891303,975.2173913043478,2697.304347826087,-3544.869565217391,67.3385487432065,4.0374755859375,2.2760805876358745,3.5539130434782606
1.0225,2001,2001,289431,18163.318359375,25680.421875,3.393905986374306,29.387083078701025,11.500000000000066,-0.00954764229910712,0.9836687360491071,-0.1797572544642857,-1.988002232142859,-1.8463134765624982,-0.5198887416294656,-4213.392857142857,2598.375,-1184.7142857142858,100.52627563476562,1.5034593854631737,-171.08165196010046,3.484107142857143,1.5000000000000568,0.034269634046052606,0.9755345394736842,-0.21813322368421056,-2.8397409539473677,1.5323036595394701,0.9524696751644729,-155.23684210526307,2407.0526315789475,5133.868421052632,102.94767680921052,-0.8033029656661199,133.06264776932562,3.55,9.500000000000064,-0.07990828804347826,0.9173212466032609,0.39291779891304346,0.5479895550271734,-0.7085385529891308,0.7072117017663043,974.6739130434783,2697.0434782608695,-3543.695652173913,67.33842932659647,4.0374755859375,2.2767970872961882,3.554130434782609
1.023,2002,2002,289431,18165.603515625,25680.0625,5.1767189135734775,25.821122953398174,12.00000000000001,-0.009347098214285716,0.9834681919642857,-0.17954799107142858,-2.0054408482142856,-1.8310546875,-0.5318777901785714,-4213.714285714285,2598.0,-1184.5714285714287,100.52490234375,1.5043422154017776,-171.08224051339286,3.4842857142857144,2.0000000000000018,0.03397409539473685,0.975354646381579,-0.21841591282894737,-2.830103824013158,1.4937551398026325,0.9444387335526317,-154.31578947368422,2406.7368421052633,5135.157894736842,102.9459421258224,-0.8037366365131504,133.06322599712172,3.55,10.000000000000009,-0.07995074728260869,0.9175441576086957,0.3928328804347826,0.5254330842391326,-0.7297681725543457,0.7058848505434784,974.1304347826087,2696.782608695652,-3542.521739130435,67.3383099099864,4.0374755859375,2.2775135869565304,3.5543478260869565
1.0235,2003,2003,289432,18169.689453125,25674.291015625,6.8292405954260245,17.084369841791748,12.500000000000178,-0.009146554129464218,0.9832676478794642,-0.17933872767857137,-2.02287946428572,-1.815795898437495,-0.5438668387276826,-4214.035714285715,2597.625,-1184.4285714285713,100.52352905273438,1.50522504534041,-171.08282906668526,3.484464285714286,2.5000000000001688,0.03367855674342096,0.9751747532894737,-0.2186986019736843,-2.8204666940789442,1.4552066200657778,0.936407791940787,-153.39473684210498,2406.4210526315787,5136.447368421053,102.94420744243422,-0.8041703073602093,133.06380422491776,3.55,10.500000000000176,-0.07999320652173914,0.9177670686141305,0.39274796195652173,0.5028766134510818,-0.7509977921195701,0.7045579993206519,973.586956521739,2696.5217391304345,-3541.347826086956,67.33819049337637,4.0374755859375,2.278230086616844,3.5545652173913043
1.024,2004,2004,289432,18175.21875,25659.748046875,10.65899568382699,0.2831742235751129,13.000000000000123,-0.008946010044642813,0.9830671037946428,-0.17912946428571425,-2.040318080357147,-1.8005371093749967,-0.5558558872767884,-4214.357142857143,2597.25,-1184.2857142857142,100.52215576171875,1.5061078752790138,-171.08341761997767,3.484642857142857,3.0000000000001137,0.033383018092105206,0.9749948601973684,-0.2189812911184211,-2.810829564144735,1.4166581003289402,0.9283768503289459,-152.47368421052613,2406.1052631578946,5137.736842105263,102.94247275904604,-0.8046039782072398,133.06438245271386,3.55,11.00000000000012,-0.08003566576086957,0.9179899796195652,0.39266304347826086,0.48032014266304085,-0.772227411684785,0.7032311480978259,973.0434782608695,2696.2608695652175,-3540.173913043478,67.33807107676631,4.0374755859375,2.2789465862771863,3.554782608695652
1.0245,2005,2005,289433,18176.30078125,25649.53125,9.347293883408003,-10.133837459974838,13.500000000000068,-0.008745465959821407,0.9828665597098214,-0.17892020089285712,-2.0577566964285734,-1.7852783203124982,-0.5678449358258941,-4214.678571428572,2596.875,-1184.142857142857,100.52078247070312,1.506990705217646,-171.0840061732701,3.4848214285714287,3.5000000000000586,0.03308747944078945,0.9748149671052632,-0.2192639802631579,-2.8011924342105257,1.3781095805921026,0.9203459087171046,-151.5526315789473,2405.7894736842104,5139.026315789474,102.94073807565792,-0.8050376490542703,133.0649606805099,3.55,11.500000000000066,-0.080078125,0.918212890625,0.392578125,0.457763671875,-0.79345703125,0.701904296875,972.5,2696.0,-3539.0,67.33795166015625,4.0374755859375,2.2796630859375,3.5549999999999997
1.025,2006,2006,289433,18183.6328125,25657.583984375,12.60334964073827,-3.4500606932912863,14.000000000000012,-0.008544921875,0.982666015625,-0.1787109375,-2.0751953125,-1.77001953125,-0.579833984375,-4215.0,2596.5,-1184.0,100.5194091796875,1.50787353515625,-171.0845947265625,3.4850000000000003,4.0000000000000036,0.0327919407894737,0.9746350740131579,-0.21954666940789472,-2.7915553042763164,1.339561060855265,0.9123149671052635,-150.63157894736847,2405.4736842105262,5140.315789473684,102.93900339226974,-0.8054713199013293,133.06553890830594,3.55,11.00000000000012,-0.08012058423913043,0.9184358016304348,0.39249320652173914,0.4352072010869592,-0.8146866508152149,0.7005774456521741,971.9565217391305,2695.7391304347825,-3537.826086956522,67.33783224354619,4.0374755859375,2.2803795855978137,3.555217391304348
1.0255,2007,2007,289434,18179.064453125,25670.205078125,5.692765394308993,5.901746942519408,13.499999999999845,-0.008344377790178506,0.9824654715401785,-0.1785016741071428,-2.092633928571434,-1.754760742187495,-0.5918230329241112,-4215.321428571428,2596.125,-1183.857142857143,100.51803588867188,1.508756365094854,-171.0851832798549,3.4851785714285715,4.5000000000001705,0.03249640213815781,0.9744551809210525,-0.21982935855263167,-2.7819181743421026,1.3010125411184101,0.9042840254934188,-149.71052631578922,2405.157894736842,5141.605263157895,102.93726870888156,-0.8059049907483598,133.06611713610198,3.55,10.499999999999954,-0.08016304347826088,0.9186587126358696,0.39240828804347827,0.4126507302989082,-0.8359162703804393,0.6992505944293476,971.4130434782608,2695.478260869565,-3536.652173913043,67.33771282693613,4.0374755859375,2.281096085258156,3.5554347826086956
1.026,2008,2008,289434,18180.267578125,25680.0625,4.5649836846394924,13.307871576677744,12.9999999999999,-0.008143833705357099,0.9822649274553571,-0.17829241071428567,-2.110072544642861,-1.7395019531249967,-0.603812081473217,-4215.642857142857,2595.75,-1183.7142857142858,100.51666259765625,1.5096391950334862,-171.08577183314733,3.485357142857143,5.0000000000001155,0.032200863486842056,0.9742752878289473,-0.22011204769736847,-2.7722810444078934,1.2624640213815725,0.8962530838815777,-148.78947368421038,2404.842105263158,5142.894736842106,102.93553402549344,-0.8063386615953902,133.06669536389802,3.55,10.000000000000009,-0.08020550271739131,0.9188816236413043,0.3923233695652174,0.3900942595108674,-0.8571458899456542,0.6979237432065216,970.8695652173913,2695.217391304348,-3535.478260869565,67.3375934103261,4.0374755859375,2.2818125849184696,3.5556521739130433
1.0265,2009,2009,289435,18179.064453125,25685.833984375,1.309571289309473,15.527081724593783,12.499999999999956,-0.007943289620535691,0.9820643833705357,-0.17808314732142855,-2.127511160714288,-1.7242431640624982,-0.6158011300223227,-4215.964285714285,2595.375,-1183.5714285714284,100.51528930664062,1.51052202497209,-171.08636038643974,3.4855357142857146,5.50000000000006,0.0319053248355263,0.9740953947368421,-0.22039473684210528,-2.7626439144736836,1.223915501644735,0.8882221422697365,-147.86842105263153,2404.5263157894738,5144.184210526316,102.93379934210526,-0.8067723324424207,133.06727359169406,3.55,9.500000000000064,-0.08024796195652174,0.9191045346467391,0.39223845108695654,0.3675377887228265,-0.8783755095108692,0.6965968919836957,970.3260869565217,2694.9565217391305,-3534.304347826087,67.33747399371603,4.0374755859375,2.2825290845788118,3.555869565217391
1.027,2010,2010,289435,18184.115234375,25687.154296875,3.5762058339967915,13.282879969070034,12.00000000000001,-0.007742745535714286,0.9818638392857143,-0.17787388392857142,-2.1449497767857144,-1.708984375,-0.6277901785714286,-4216.285714285715,2595.0,-1183.4285714285713,100.513916015625,1.5114048549107224,-171.08694893973214,3.4857142857142858,6.000000000000005,0.03160978618421055,0.9739155016447368,-0.2206774259868421,-2.7530067845394743,1.1853669819078974,0.8801912006578954,-146.9473684210527,2404.2105263157896,5145.473684210526,102.93206465871708,-0.8072060032894797,133.0678518194901,3.55,9.000000000000119,-0.08029042119565216,0.9193274456521738,0.3921535326086957,0.3449813179347857,-0.899605129076084,0.6952700407608697,969.7826086956522,2694.695652173913,-3533.130434782609,67.337354577106,4.0374755859375,2.2832455842391255,3.5560869565217392
1.0275,2011,2011,289436,18179.064453125,25684.029296875,-2.019026401693566,9.185043755691941,11.499999999999844,-0.007542201450892791,0.9816632952008928,-0.17766462053571422,-2.1623883928571486,-1.6937255859374951,-0.6397792271205397,-4216.607142857143,2594.625,-1183.2857142857142,100.51254272460938,1.5122876848493263,-171.08753749302454,3.4858928571428573,6.500000000000172,0.03131424753289466,0.9737356085526315,-0.220960115131579,-2.7433696546052606,1.1468184621710427,0.8721602590460505,-146.02631578947344,2403.894736842105,5146.763157894738,102.93032997532896,-0.8076396741365102,133.06843004728614,3.55,8.499999999999952,-0.08033288043478262,0.9195503566576088,0.39206861413043476,0.3224248471467347,-0.9208347486413085,0.6939431895380432,969.2391304347825,2694.4347826086955,-3531.95652173913,67.33723516049594,4.0374755859375,2.2839620838994676,3.556304347826087
1.028,2012,2012,289436,18176.662109375,25687.515625,-5.085077855326318,12.134177339416848,10.999999999999899,-0.007341657366071384,0.9814627511160714,-0.1774553571428571,-2.179827008928575,-1.6784667968749967,-0.6517682756696455,-4216.928571428572,2594.25,-1183.142857142857,100.51116943359375,1.5131705147879586,-171.08812604631697,3.486071428571429,7.000000000000117,0.031018708881578906,0.9735557154605263,-0.22124280427631582,-2.7337325246710513,1.108269942434205,0.8641293174342094,-145.1052631578946,2403.578947368421,5148.0526315789475,102.92859529194078,-0.8080733449835407,133.06900827508224,3.55,8.000000000000007,-0.08037533967391304,0.9197732676630435,0.3919836956521739,0.2998683763586939,-0.9420643682065234,0.6926163383152173,968.695652173913,2694.173913043478,-3530.782608695652,67.33711574388587,4.0374755859375,2.2846785835597814,3.5565217391304347
1.0285,2013,2013,289437,18177.142578125,25684.869140625,-6.272804187204118,6.896223825364109,10.499999999999954,-0.0071411132812499774,0.98126220703125,-0.17724609374999997,-2.1972656250000018,-1.6632080078124982,-0.6637573242187513,-4217.25,2593.875,-1183.0,100.50979614257812,1.5140533447265625,-171.08871459960938,3.48625,7.500000000000062,0.03072317023026315,0.973375822368421,-0.22152549342105263,-2.724095394736842,1.0697214226973675,0.8560983758223683,-144.18421052631578,2403.2631578947367,5149.342105263158,102.9268606085526,-0.8085070158305996,133.06958650287828,3.55,7.500000000000062,-0.08041779891304347,0.9199961786684783,0.391898777173913,0.2773119055706531,-0.9632939877717382,0.6912894870923914,968.1521739130435,2693.913043478261,-3529.608695652174,67.33699632727581,4.0374755859375,2.285395083220095,3.5567391304347824
1.029,2014,2014,289437,18175.458984375,25681.744140625,-8.071632976169466,2.194928859451865,10.000000000000009,-0.006940569196428571,0.9810616629464286,-0.17703683035714285,-2.214704241071429,-1.64794921875,-0.6757463727678572,-4217.571428571428,2593.5,-1182.857142857143,100.5084228515625,1.5149361746651664,-171.08930315290178,3.4864285714285717,8.000000000000007,0.030427631578947397,0.9731959292763158,-0.22180818256578944,-2.7144582648026323,1.0311729029605299,0.8480674342105271,-143.26315789473693,2402.9473684210525,5150.631578947368,102.92512592516448,-0.8089406866776301,133.07016473067438,3.55,7.000000000000117,-0.0804602581521739,0.920219089673913,0.39181385869565216,0.2547554347826122,-0.9845236073369532,0.6899626358695654,967.608695652174,2693.6521739130435,-3528.434782608696,67.33687691066575,4.0374755859375,2.2861115828804373,3.5569565217391306
1.0295,2015,2015,289438,18170.53125,25681.0234375,-12.612568642201978,1.0177275785139166,9.499999999999842,-0.006740025111607075,0.9808611188616071,-0.17682756696428564,-2.232142857142863,-1.632690429687495,-0.6877354213169683,-4217.892857142857,2593.125,-1182.7142857142858,100.50704956054688,1.5158190046037987,-171.0898917061942,3.4866071428571432,8.500000000000174,0.03013209292763151,0.9730160361842105,-0.22209087171052638,-2.7048211348684186,0.9926243832236752,0.8400364925986823,-142.3421052631577,2402.6315789473683,5151.921052631579,102.9233912417763,-0.8093743575246606,133.07074295847042,3.55,6.49999999999995,-0.08050271739130435,0.9204420006793479,0.3917289402173913,0.2321989639945613,-1.0057532269021776,0.6886357846467389,967.0652173913043,2693.391304347826,-3527.260869565217,67.33675749405569,4.0374755859375,2.286828082540751,3.5571739130434783
1.03,2016,2016,289438,18169.087890625,25683.1875,-12.525999662620961,0.8016215207346118,8.999999999999897,-0.006539481026785671,0.9806605747767857,-0.17661830357142852,-2.2495814732142896,-1.6174316406249967,-0.6997244698660741,-4218.214285714286,2592.75,-1182.5714285714284,100.50567626953125,1.5167018345424026,-171.0904802594866,3.4867857142857144,9.000000000000119,0.029836554276315756,0.9728361430921052,-0.2223735608552632,-2.6951840049342093,0.9540758634868376,0.8320055509868411,-141.42105263157885,2402.315789473684,5153.21052631579,102.92165655838818,-0.8098080283717195,133.07132118626646,3.55,6.000000000000005,-0.08054517663043478,0.9206649116847826,0.39164402173913043,0.2096424932065204,-1.0269828464673925,0.687308933423913,966.5217391304348,2693.1304347826085,-3526.086956521739,67.33663807744566,4.0374755859375,2.287544582201093,3.557391304347826
1.0305,2017,2017,289439,18172.333984375,25685.953125,-7.852168196294012,-1.7595110127085194,8.499999999999952,-0.006338936941964263,0.9804600306919643,-0.1764090401785714,-2.267020089285716,-1.6021728515624982,-0.7117135184151799,-4218.535714285715,2592.375,-1182.4285714285713,100.50430297851562,1.517584664481035,-171.091068812779,3.486964285714286,9.500000000000064,0.029541015625,0.97265625,-0.22265625,-2.685546875,0.91552734375,0.823974609375,-140.5,2402.0,5154.5,102.919921875,-0.81024169921875,133.0718994140625,3.55,5.50000000000006,-0.08058763586956522,0.9208878226902174,0.39155910326086957,0.1870860224184796,-1.0482124660326075,0.685982082201087,965.9782608695652,2692.8695652173915,-3524.913043478261,67.3365186608356,4.0374755859375,2.288261081861407,3.5576086956521737
1.031,2018,2018,289439,18176.541015625,25686.3125,-3.316671234177176,-7.4856697677963915,8.000000000000007,-0.006138392857142856,0.9802594866071429,-0.17619977678571427,-2.284458705357143,-1.5869140625,-0.7237025669642857,-4218.857142857143,2592.0,-1182.2857142857142,100.5029296875,1.5184674944196388,-171.09165736607142,3.487142857142857,9.000000000000119,0.029245476973684244,0.9724763569078948,-0.2229389391447368,-2.6759097450657907,0.8769788240131623,0.8159436677631589,-139.57894736842115,2401.684210526316,5155.78947368421,102.91818719161182,-0.8106753700657805,133.07247764185854,3.55,5.0000000000001155,-0.08063009510869565,0.9211107336956521,0.3914741847826087,0.1645295516304387,-1.0694420855978224,0.6846552309782611,965.4347826086957,2692.608695652174,-3523.739130434783,67.33639924422556,4.0374755859375,2.288977581521749,3.557826086956522
1.0315,2019,2019,289440,18174.857421875,25683.548828125,-4.375630529130251,-12.650395754276934,7.49999999999984,-0.005937848772321362,0.9800589425223214,-0.17599051339285707,-2.3018973214285774,-1.571655273437495,-0.7356916155133968,-4219.178571428572,2591.625,-1182.142857142857,100.50155639648438,1.519350324358271,-171.09224591936385,3.4873214285714287,8.499999999999952,0.02894993832236836,0.9722964638157895,-0.22322162828947376,-2.666272615131577,0.8384303042763077,0.8079127261513142,-138.6578947368419,2401.3684210526317,5157.078947368422,102.9164525082237,-0.8111090409128394,133.07305586965458,3.55,4.4999999999999485,-0.0806725543478261,0.921333644701087,0.39138926630434784,0.1419730808423878,-1.0906717051630468,0.6833283797554346,964.891304347826,2692.3478260869565,-3522.565217391304,67.3362798276155,4.0374755859375,2.2896940811820627,3.5580434782608696
1.032,2020,2020,289440,18174.017578125,25679.580078125,-3.9417195309937743,-16.895795412612483,6.999999999999895,-0.005737304687499955,0.9798583984375,-0.17578124999999994,-2.319335937500004,-1.5563964843749964,-0.7476806640625027,-4219.5,2591.25,-1182.0,100.50018310546875,1.520233154296875,-171.09283447265625,3.4875000000000003,8.000000000000007,0.028654399671052603,0.9721165707236842,-0.22350431743421056,-2.6566354851973677,0.7998817845394701,0.7998817845394729,-137.73684210526307,2401.0526315789475,5158.368421052632,102.91471782483552,-0.8115427117598699,133.07363409745062,3.55,4.0000000000000036,-0.08071501358695653,0.9215565557065217,0.391304347826087,0.1194166100543469,-1.1119013247282616,0.6820015285326086,964.3478260869565,2692.086956521739,-3521.391304347826,67.33616041100544,4.0374755859375,2.290410580842405,3.5582608695652174
1.0325,2021,2021,289441,18177.744140625,25674.7734375,-0.9077222304622907,-18.71892525187263,6.49999999999995,-0.005536760602678549,0.9796578543526786,-0.17557198660714285,-2.3367745535714306,-1.5411376953124982,-0.7596697126116084,-4219.821428571428,2590.875,-1181.857142857143,100.49880981445312,1.521115984235479,-171.09342302594865,3.4876785714285714,7.500000000000062,0.02835886101973685,0.971936677631579,-0.22378700657894737,-2.646998355263158,0.7613332648026324,0.7918508429276317,-136.81578947368422,2400.7368421052633,5159.657894736842,102.9129831414474,-0.8119763826069004,133.07421232524672,3.55,3.5000000000000586,-0.08075747282608696,0.9217794667119565,0.3912194293478261,0.0968601392663061,-1.1331309442934767,0.6806746773097827,963.804347826087,2691.826086956522,-3520.217391304348,67.33604099439538,4.0374755859375,2.2911270805027186,3.558478260869565
1.033,2022,2022,289441,18179.306640625,25669.966796875,0.2403651855350819,-20.71691271657897,6.000000000000005,-0.005336216517857144,0.9794573102678571,-0.17536272321428573,-2.354213169642857,-1.52587890625,-0.7716587611607143,-4220.142857142857,2590.5,-1181.7142857142858,100.4974365234375,1.5219988141741112,-171.09401157924108,3.487857142857143,7.000000000000117,0.028063322368421094,0.9717567845394737,-0.22406969572368418,-2.6373612253289487,0.7227847450657949,0.7838199013157906,-135.8947368421054,2400.421052631579,5160.9473684210525,102.91124845805922,-0.8124100534539593,133.07479055304276,3.55,3.0000000000001137,-0.08079993206521738,0.9220023777173912,0.39113451086956524,0.0743036684782653,-1.1543605638586913,0.6793478260869568,963.2608695652175,2691.5652173913045,-3519.04347826087,67.33592157778531,4.0374755859375,2.2918435801630324,3.558695652173913
1.0335,2023,2023,289442,18182.791015625,25667.5625,3.92811572587921,-19.258584027906835,5.499999999999838,-0.005135672433035648,0.9792567661830357,-0.1751534598214285,-2.3716517857142914,-1.510620117187495,-0.7836478097098254,-4220.464285714286,2590.125,-1181.5714285714284,100.49606323242188,1.522881644112715,-171.0946001325335,3.4880357142857146,6.49999999999995,0.027767783717105206,0.9715768914473684,-0.2243523848684211,-2.627724095394735,0.6842362253289401,0.7757889597039459,-134.97368421052613,2400.1052631578946,5162.236842105263,102.90951377467104,-0.8128437243009898,133.07536878083886,3.55,2.4999999999999467,-0.08084239130434784,0.9222252887228262,0.3910495923913043,0.0517471976902143,-1.175590183423916,0.6780209748641303,962.7173913043478,2691.304347826087,-3517.869565217391,67.33580216117525,4.0374755859375,2.2925600798233745,3.558913043478261
1.034,2024,2024,289442,18179.546875,25670.927734375,0.1843732735161685,-12.808008726235439,4.999999999999893,-0.004935128348214241,0.9790562220982142,-0.1749441964285714,-2.389090401785718,-1.4953613281249964,-0.7956368582589313,-4220.785714285715,2589.75,-1181.4285714285713,100.49468994140625,1.5237644740513474,-171.0951886858259,3.4882142857142857,6.000000000000005,0.027472245065789453,0.9713969983552632,-0.2246350740131579,-2.6180869654605257,0.6456877055921026,0.7677580180921048,-134.0526315789473,2399.7894736842104,5163.526315789474,102.90777909128292,-0.8132773951480203,133.0759470086349,3.55,2.0000000000000018,-0.08088485054347826,0.9224481997282609,0.39096467391304346,0.029190726902173503,-1.1968198029891308,0.6766941236413043,962.1739130434783,2691.0434782608695,-3516.695652173913,67.33568274456522,4.0374755859375,2.2932765794836882,3.5591304347826087
1.0345,2025,2025,289443,18180.5078125,25671.529296875,0.3932847398337609,-10.058831149279925,4.4999999999999485,-0.004734584263392835,0.9788556780133928,-0.17473493303571427,-2.406529017857145,-1.4801025390624982,-0.807625906808037,-4221.107142857143,2589.375,-1181.2857142857142,100.49331665039062,1.5246473039899513,-171.0957772391183,3.4883928571428573,5.50000000000006,0.0271767064144737,0.9712171052631579,-0.22491776315789472,-2.6084498355263164,0.607139185855265,0.7597270764802635,-133.13157894736847,2399.4736842105262,5164.815789473684,102.90604440789474,-0.8137110659950793,133.07652523643094,3.55,1.5000000000000568,-0.08092730978260869,0.9226711107336957,0.3908797554347826,0.006634256114132597,-1.218049422554346,0.6753672724184784,961.6304347826087,2690.782608695652,-3515.521739130435,67.33556332795516,4.0374755859375,2.2939930791440304,3.5593478260869564
1.035,2026,2026,289443,18183.2734375,25669.484375,2.868994039632696,-11.433497848126654,4.0000000000000036,-0.00453404017857143,0.9786551339285714,-0.17452566964285715,-2.423967633928571,-1.46484375,-0.8196149553571428,-4221.428571428572,2589.0,-1181.142857142857,100.491943359375,1.5255301339285836,-171.09636579241072,3.488571428571429,5.0000000000001155,0.026881167763157944,0.9710372121710527,-0.22520045230263153,-2.5988127055921066,0.5685906661184272,0.7516961348684223,-132.21052631578962,2399.157894736842,5166.105263157894,102.90430972450656,-0.8141447368421098,133.07710346422698,3.55,1.000000000000112,-0.08096976902173912,0.9228940217391304,0.39079483695652173,-0.015922214673908197,-1.2392790421195607,0.6740404211956524,961.0869565217392,2690.521739130435,-3514.347826086957,67.33544391134512,4.0374755859375,2.294709578804344,3.559565217391304
1.0355,2027,2027,289444,18180.388671875,25672.0078125,0.42025296066101525,-7.8542659270172495,3.4999999999998366,-0.004333496093749932,0.9784545898437499,-0.17431640624999994,-2.4414062500000058,-1.449584960937495,-0.831604003906254,-4221.75,2588.625,-1181.0,100.49057006835938,1.5264129638671875,-171.09695434570312,3.4887500000000005,4.4999999999999485,0.026585629111842056,0.9708573190789473,-0.22548314144736847,-2.5891755756578934,0.5300421463815728,0.7436651932565777,-131.28947368421038,2398.842105263158,5167.394736842106,102.90257504111844,-0.8145784076891402,133.07768169202302,3.55,0.49999999999994493,-0.08101222826086957,0.9231169327445652,0.39070991847826086,-0.038478685461959206,-1.2605086616847851,0.6727135699728259,960.5434782608695,2690.2608695652175,-3513.173913043478,67.33532449473506,4.0374755859375,2.2954260784646863,3.5597826086956523
1.036,2028,2028,289444,18180.869140625,25672.0078125,1.7082151987124146,-6.807048181290306,2.9999999999998916,-0.004132952008928527,0.9782540457589285,-0.17410714285714282,-2.4588448660714324,-1.4343261718749967,-0.8435930524553598,-4222.071428571428,2588.25,-1180.857142857143,100.48919677734375,1.5272957938057914,-171.09754289899553,3.4889285714285716,4.0000000000000036,0.0262900904605263,0.9706774259868421,-0.22576583059210528,-2.5795384457236836,0.49149362664473495,0.7356342516447365,-130.36842105263153,2398.5263157894738,5168.684210526316,102.90084035773026,-0.8150120785361707,133.07825991981906,3.55,0.0,-0.0810546875,0.92333984375,0.390625,-0.06103515625,-1.28173828125,0.67138671875,960.0,2690.0,-3512.0,67.335205078125,4.0374755859375,2.296142578125,3.56
1.0365,2029,2029,289445,18182.671875,25673.091796875,2.2895212130148708,-4.088831440761176,2.4999999999999467,-0.003932407924107121,0.9780535016741071,-0.1738978794642857,-2.476283482142859,-1.4190673828124982,-0.8555821010044656,-4222.392857142857,2587.875,-1180.7142857142858,100.48782348632812,1.5281786237444237,-171.09813145228796,3.489107142857143,3.5000000000000586,0.025994551809210547,0.9704975328947368,-0.2260485197368421,-2.5699013157894743,0.45294510690789735,0.7276033100328952,-129.4473684210527,2398.2105263157896,5169.973684210526,102.89910567434208,-0.8154457493832297,133.0788381476151,3.55,0.49999999999994493,-0.08076171875000003,0.923388671875,0.390576171875,-0.08544921874999784,-1.2878417968749996,0.6835937499999989,959.4000000000001,2691.2,-3514.1,67.33465576171875,4.03802490234375,2.296142578125,3.56
1.037,2030,2030,289445,18180.267578125,25671.767578125,-0.5765374219600465,-5.418858653646768,2.0000000000000018,-0.003731863839285714,0.9778529575892857,-0.17368861607142858,-2.4937220982142856,-1.40380859375,-0.8675711495535714,-4222.714285714285,2587.5,-1180.5714285714287,100.4864501953125,1.5290614536830276,-171.09872000558036,3.4892857142857143,3.0000000000001137,0.025699013157894794,0.9703176398026316,-0.2263312088815789,-2.560264185855265,0.41439658717105976,0.7195723684210542,-128.52631578947387,2397.8947368421054,5171.263157894737,102.89737099095396,-0.8158794202302602,133.07941637541114,3.55,0.9999999999998899,-0.08046875000000005,0.9234375,0.39052734375000003,-0.10986328124999567,-1.293945312499999,0.6958007812499978,958.8000000000001,2692.3999999999996,-3516.2,67.3341064453125,4.03857421875,2.296142578125,3.56
1.0375,2031,2031,289446,18182.310546875,25672.369140625,0.5247207126153093,-5.142871038094273,1.4999999999998348,-0.0035313197544642183,0.9776524135044642,-0.17347935267857137,-2.51116071428572,-1.388549804687495,-0.8795601981026826,-4223.035714285715,2587.125,-1180.4285714285713,100.48507690429688,1.52994428362166,-171.09930855887276,3.489464285714286,2.4999999999999467,0.025403474506578906,0.9701377467105263,-0.22661389802631582,-2.5506270559210513,0.37584806743420507,0.7115414268092094,-127.60526315789461,2397.578947368421,5172.5526315789475,102.89563630756578,-0.8163130910772907,133.07999460320724,3.55,1.5000000000000568,-0.08017578124999995,0.923486328125,0.39047851562499997,-0.13427734375000433,-1.300048828125001,0.7080078125000022,958.1999999999999,2693.6000000000004,-3518.3,67.33355712890625,4.03912353515625,2.296142578125,3.56
1.038,2032,2032,289446,18183.994140625,25670.4453125,0.9372697724228247,-6.239398270892613,0.9999999999998899,-0.003330775669642813,0.9774518694196428,-0.17327008928571425,-2.528599330357147,-1.3732910156249964,-0.8915492466517884,-4223.357142857143,2586.75,-1180.2857142857142,100.48370361328125,1.5308271135602638,-171.09989711216517,3.4896428571428575,2.0000000000000018,0.02510793585526315,0.969957853618421,-0.22689658717105263,-2.540989925986842,0.3372995476973677,0.7035104851973683,-126.68421052631577,2397.2631578947367,5173.842105263158,102.8939016241776,-0.8167467619243496,133.08057283100328,3.55,2.0000000000000018,-0.07988281249999997,0.92353515625,0.3904296875,-0.15869140625000216,-1.3061523437500004,0.7202148437500011,957.5999999999999,2694.8,-3520.4,67.3330078125,4.0396728515625,2.296142578125,3.56
1.0385,2033,2033,289447,18184.595703125,25672.728515625,1.8171364417831672,-4.135653440580075,0.49999999999994493,-0.0031302315848214073,0.9772513253348214,-0.17306082589285712,-2.5460379464285734,-1.3580322265624982,-0.9035382952008941,-4223.678571428572,2586.375,-1180.142857142857,100.48233032226562,1.531709943498896,-171.1004856654576,3.4898214285714286,1.5000000000000568,0.024812397203947394,0.9697779605263158,-0.22717927631578944,-2.5313527960526323,0.2987510279605299,0.695479543585527,-125.76315789473693,2396.9473684210525,5175.131578947368,102.89216694078948,-0.8171804327713801,133.08115105879938,3.55,2.4999999999999467,-0.07958984375,0.923583984375,0.390380859375,-0.18310546875,-1.312255859375,0.732421875,957.0,2696.0,-3522.5,67.33245849609375,4.04022216796875,2.296142578125,3.56
1.039,2034,2034,289447,18182.791015625,25673.451171875,0.11214108596864947,-2.6611897656075882,0.0,-0.0029296875,0.97705078125,-0.1728515625,-2.5634765625,-1.3427734375,-0.91552734375,-4224.0,2586.0,-1180.0,100.48095703125,1.5325927734375,-171.10107421875,3.49,1.000000000000112,0.02451685855263164,0.9695980674342106,-0.22746196546052624,-2.521715666118423,0.2602025082236923,0.6874486019736858,-124.84210526315809,2396.6315789473683,5176.421052631578,102.8904322574013,-0.8176141036184106,133.08172928659542,3.55,2.0000000000000018,-0.07929687500000003,0.9236328125,0.39033203125,-0.20751953124999784,-1.3183593749999996,0.7446289062499989,956.4000000000001,2697.2,-3524.6,67.3319091796875,4.040771484375,2.296142578125,3.56
1.0395,2035,2035,289448,18187.240234375,25674.171875,4.384311061252454,-1.147187590209736,0.500000000000167,-0.002842494419642828,0.9771554129464286,-0.17299107142857148,-2.5525774274553537,-1.2228829520088886,-0.9089878627232121,-4223.785714285714,2586.607142857143,-1181.3214285714291,100.47997610909601,1.5329851422991112,-171.09989711216517,3.49,0.49999999999994493,0.024221319901315756,0.9694181743421052,-0.2277446546052632,-2.5120785361842093,0.2216539884868376,0.6794176603618411,-123.92105263157885,2396.315789473684,5177.71052631579,102.88869757401318,-0.8180477744654695,133.08230751439146,3.55,1.4999999999998348,-0.07900390624999992,0.923681640625,0.390283203125,-0.2319335937500065,-1.3244628906250016,0.7568359375000032,955.7999999999998,2698.4000000000005,-3526.7000000000007,67.33135986328125,4.04132080078125,2.296142578125,3.56
1.04,2036,2036,289448,18183.6328125,25672.490234375,1.7065576832593816,-3.6502868510556254,1.000000000000112,-0.002755301339285695,0.9772600446428572,-0.17313058035714288,-2.5416782924107117,-1.1029924665178306,-0.9024483816964272,-4223.571428571428,2587.214285714286,-1182.6428571428573,100.47899518694197,1.5333775111607224,-171.09872000558036,3.49,0.0,0.02392578125,0.96923828125,-0.22802734375,-2.50244140625,0.18310546875,0.67138671875,-123.0,2396.0,5179.0,102.886962890625,-0.8184814453125,133.0828857421875,3.55,0.9999999999998899,-0.07871093749999995,0.92373046875,0.39023437499999997,-0.25634765625000433,-1.330566406250001,0.7690429687500022,955.1999999999999,2699.6000000000004,-3528.8,67.330810546875,4.0418701171875,2.296142578125,3.56
1.0405,2037,2037,289449,18186.3984375,25676.455078125,3.046609721661348,-2.138206570620632,1.5000000000000568,-0.0026681082589285615,0.9773646763392857,-0.1732700892857143,-2.5307791573660703,-0.9831019810267725,-0.8959089006696421,-4223.357142857143,2587.8214285714284,-1183.9642857142858,100.47801426478793,1.5337698800223336,-171.09754289899553,3.49,0.49999999999994493,0.02385602678571429,0.9691336495535714,-0.22858537946428567,-2.5111607142857135,0.20926339285714035,0.6670270647321432,-122.64285714285718,2396.3571428571427,5179.0,102.88500104631697,-0.8192661830357224,133.08327811104914,3.55,0.49999999999994493,-0.07841796874999997,0.923779296875,0.390185546875,-0.28076171875000216,-1.3366699218750004,0.7812500000000011,954.5999999999999,2700.8,-3530.9,67.33026123046875,4.04241943359375,2.296142578125,3.56
1.041,2038,2038,289449,18185.435546875,25676.095703125,-0.34644379138588355,-4.873547626123504,2.0000000000000018,-0.0025809151785714285,0.9774693080357143,-0.17340959821428573,-2.5198800223214284,-0.8632114955357143,-0.8893694196428571,-4223.142857142857,2588.4285714285716,-1185.2857142857142,100.47703334263394,1.5341622488839164,-171.09636579241072,3.49,0.9999999999998899,0.023786272321428586,0.9690290178571429,-0.2291434151785713,-2.519880022321427,0.23542131696428073,0.6626674107142866,-122.28571428571435,2396.714285714286,5179.0,102.88303920200894,-0.8200509207589164,133.08367047991072,3.55,0.0,-0.078125,0.923828125,0.39013671875,-0.30517578125,-1.3427734375,0.79345703125,954.0,2702.0,-3533.0,67.3297119140625,4.04296875,2.296142578125,3.56
1.0415,2039,2039,289450,18186.517578125,25674.7734375,-0.7812982459323665,-5.412012901880914,2.5000000000001688,-0.0024937220982142565,0.9775739397321429,-0.17354910714285718,-2.508980887276782,-0.7433210100446029,-0.8828299386160693,-4222.928571428572,2589.0357142857147,-1186.6071428571433,100.4760524204799,1.5345546177455276,-171.0951886858259,3.49,1.5000000000000568,0.023716517857142846,0.9689243861607143,-0.22970145089285723,-2.528599330357144,0.2615792410714327,0.6583077566964278,-121.92857142857137,2397.0714285714284,5179.0,102.88107735770086,-0.8208356584821388,133.0840628487723,3.55,0.500000000000167,-0.0779157366071428,0.923828125,0.39017159598214285,-0.31825474330357556,-1.3471330915178585,0.8065359933035756,953.1428571428569,2703.7857142857147,-3532.5,67.3297119140625,4.04296875,2.296142578125,3.56
1.042,2040,2040,289450,18190.244140625,25677.658203125,3.4282425759017725,-5.459330747940545,3.0000000000001137,-0.0024065290178571235,0.9776785714285714,-0.1736886160714286,-2.4980817522321406,-0.6234305245535449,-0.8762904575892843,-4222.714285714285,2589.6428571428573,-1187.9285714285718,100.47507149832586,1.5349469866071388,-171.09401157924108,3.49,2.0000000000000018,0.023646763392857137,0.9688197544642857,-0.2302594866071429,-2.5373186383928577,0.28773716517857306,0.6539481026785712,-121.57142857142856,2397.4285714285716,5179.0,102.87911551339289,-0.8216203962053612,133.08445521763394,3.55,1.000000000000112,-0.07770647321428567,0.923828125,0.3902064732142857,-0.33133370535714535,-1.351492745535715,0.8196149553571453,952.2857142857141,2705.571428571429,-3532.0,67.3297119140625,4.04296875,2.296142578125,3.56
1.0425,2041,2041,289451,18190.244140625,25681.384765625,2.2488195330295535,-4.241679417693721,3.5000000000000586,-0.0023193359374999905,0.977783203125,-0.17382812500000003,-2.4871826171874987,-0.5035400390624868,-0.8697509765624993,-4222.5,2590.25,-1189.2500000000002,100.47409057617188,1.53533935546875,-171.09283447265625,3.49,2.4999999999999467,0.02357700892857143,0.9687151227678571,-0.23081752232142855,-2.546037946428571,0.31389508928571347,0.6495884486607144,-121.21428571428572,2397.785714285714,5179.0,102.8771536690848,-0.8224051339285836,133.08484758649553,3.55,1.5000000000000568,-0.07749720982142856,0.923828125,0.39024135044642855,-0.34441266741071513,-1.3558523995535716,0.8326939174107151,951.4285714285713,2707.357142857143,-3531.5,67.3297119140625,4.04296875,2.296142578125,3.56
1.043,2042,2042,289451,18193.849609375,25679.703125,4.835765204856338,-4.825396180538213,4.0000000000000036,-0.002232142857142857,0.9778878348214286,-0.17396763392857142,-2.476283482142857,-0.3836495535714286,-0.8632114955357143,-4222.285714285715,2590.8571428571427,-1190.5714285714287,100.47310965401789,1.5357317243303612,-171.09165736607142,3.49,2.9999999999998916,0.023507254464285723,0.9686104910714286,-0.23137555803571422,-2.5547572544642847,0.3400530133928538,0.6452287946428577,-120.8571428571429,2398.142857142857,5179.0,102.87519182477678,-0.8231898716517776,133.0852399553571,3.55,2.0000000000000018,-0.07728794642857144,0.923828125,0.39027622767857145,-0.35749162946428487,-1.3602120535714284,0.8457728794642849,950.5714285714287,2709.142857142857,-3531.0,67.3297119140625,4.04296875,2.296142578125,3.56
1.0435,2043,2043,289452,18193.970703125,25682.828125,2.8318595355987197,-1.3038729679156003,4.5000000000001705,-0.0021449497767856854,0.9779924665178572,-0.1741071428571429,-2.465384347098211,-0.26375906808031724,-0.8566720145089264,-4222.071428571428,2591.464285714286,-1191.8928571428576,100.47212873186385,1.5361240931919724,-171.0904802594866,3.49,3.4999999999998366,0.023437499999999986,0.968505859375,-0.2319335937500001,-2.5634765625000018,0.3662109375000058,0.640869140624999,-120.49999999999991,2398.5,5179.0,102.87322998046875,-0.823974609375,133.08563232421875,3.55,2.5000000000001688,-0.07707868303571423,0.923828125,0.3903111049107143,-0.3705705915178604,-1.364571707589287,0.8588518415178604,949.7142857142856,2710.928571428572,-3530.5,67.3297119140625,4.04296875,2.296142578125,3.56
1.044,2044,2044,289452,18200.701171875,25678.138671875,7.439290766973372,-5.244232483368581,5.0000000000001155,-0.002057756696428552,0.9780970982142857,-0.17424665178571433,-2.454485212053569,-0.14386858258925894,-0.8501325334821415,-4221.857142857143,2592.071428571429,-1193.214285714286,100.4711478097098,1.5365164620535836,-171.08930315290178,3.49,2.9999999999998916,0.023367745535714277,0.9684012276785714,-0.23249162946428578,-2.5721958705357153,0.3923688616071462,0.6365094866071423,-120.1428571428571,2398.857142857143,5179.0,102.87126813616072,-0.8247593470982224,133.0860246930804,3.55,3.0000000000001137,-0.07686941964285712,0.923828125,0.39034598214285715,-0.38364955357143027,-1.3689313616071435,0.8719308035714303,948.8571428571428,2712.714285714286,-3530.0,67.3297119140625,4.04296875,2.296142578125,3.56
1.0445,2045,2045,289453,18200.341796875,25673.451171875,5.560502211021781,-9.382106935945364,5.50000000000006,-0.001970563616071419,0.9782017299107143,-0.17438616071428573,-2.4435860770089275,-0.023978097098200868,-0.8435930524553564,-4221.642857142857,2592.6785714285716,-1194.5357142857144,100.47016688755582,1.5369088309151664,-171.08812604631697,3.49,2.4999999999999467,0.02329799107142857,0.9682965959821429,-0.23304966517857145,-2.580915178571429,0.41852678571428653,0.6321498325892856,-119.78571428571428,2399.214285714286,5179.0,102.8693062918527,-0.8255440848214164,133.08641706194197,3.55,3.5000000000000586,-0.07666015625,0.923828125,0.390380859375,-0.396728515625,-1.373291015625,0.885009765625,948.0,2714.5,-3529.5,67.3297119140625,4.04296875,2.296142578125,3.56
1.045,2046,2046,289453,18207.552734375,25670.4453125,8.601914971601664,-14.108783608077555,6.000000000000005,-0.0018833705357142857,0.9783063616071429,-0.17452566964285715,-2.4326869419642856,0.09591238839285698,-0.8370535714285714,-4221.428571428572,2593.285714285714,-1195.857142857143,100.46918596540178,1.5373011997767776,-171.08694893973214,3.49,2.0000000000000018,0.023228236607142863,0.9681919642857143,-0.2336077008928571,-2.5896344866071423,0.44468470982142694,0.6277901785714288,-119.42857142857144,2399.5714285714284,5179.0,102.86734444754461,-0.8263288225446388,133.08680943080356,3.55,3.0000000000001137,-0.07645089285714288,0.923828125,0.39041573660714285,-0.4098074776785698,-1.3776506696428565,0.8980887276785697,947.1428571428572,2716.285714285714,-3529.0,67.3297119140625,4.04296875,2.296142578125,3.56
1.0455,2047,2047,289454,18206.3515625,25673.091796875,6.3245504962468075,-13.672017145741735,6.500000000000172,-0.001796177455357114,0.9784109933035715,-0.17466517857142863,-2.4217878069196392,0.21580287388396857,-0.8305140904017836,-4221.214285714285,2593.8928571428573,-1197.1785714285718,100.46820504324774,1.5376935686383888,-171.08577183314733,3.49,1.4999999999998348,0.023158482142857123,0.9680873325892857,-0.23416573660714302,-2.5983537946428594,0.4708426339285789,0.6234305245535702,-119.07142857142847,2399.9285714285716,5179.0,102.86538260323664,-0.8271135602678612,133.0872017996652,3.55,2.4999999999999467,-0.07624162946428567,0.923828125,0.3904506138392857,-0.42288643973214535,-1.382010323660715,0.9111676897321453,946.2857142857141,2718.071428571429,-3528.5,67.3297119140625,4.04296875,2.296142578125,3.56
1.046,2048,2048,289454,18207.552734375,25675.134765625,5.287447880110243,-11.299809143791238,6.999999999999895,-0.0017089843749999807,0.978515625,-0.17480468750000003,-2.410888671874998,0.3356933593750264,-0.8239746093749986,-4221.0,2594.5,-1198.5000000000002,100.46722412109375,1.5380859375,-171.0845947265625,3.49,0.9999999999998899,0.023088727678571414,0.9679827008928571,-0.2347237723214287,-2.607073102678573,0.49700055803571924,0.6190708705357134,-118.71428571428565,2400.285714285714,5179.0,102.86342075892856,-0.8278982979910836,133.08759416852678,3.55,2.0000000000000018,-0.07603236607142856,0.923828125,0.39048549107142855,-0.43596540178571513,-1.3863699776785716,0.9242466517857151,945.4285714285713,2719.857142857143,-3528.0,67.3297119140625,4.04296875,2.296142578125,3.56
1.0465,2049,2049,289455,18208.39453125,25677.056640625,4.216034098735286,-8.694077900757621,6.49999999999995,-0.0016217912946428475,0.9786202566964286,-0.17494419642857145,-2.399989536830356,0.4555838448660847,-0.8174351283482135,-4220.785714285715,2595.107142857143,-1199.8214285714287,100.46624319893976,1.5384783063616112,-171.08341761997767,3.49,0.49999999999994493,0.02301897321428571,0.9678780691964286,-0.23528180803571433,-2.6157924107142865,0.5231584821428596,0.6147112165178568,-118.35714285714282,2400.6428571428573,5179.0,102.86145891462053,-0.8286830357142776,133.08798653738836,3.55,1.5000000000000568,-0.07582310267857144,0.923828125,0.39052036830357145,-0.44904436383928487,-1.3907296316964284,0.9373256138392849,944.5714285714287,2721.642857142857,-3527.5,67.3297119140625,4.04296875,2.296142578125,3.56
1.047,2050,2050,289455,18211.640625,25675.615234375,4.08964640709209,-8.432256211448397,6.000000000000005,-0.0015345982142857145,0.9787248883928571,-0.17508370535714285,-2.3890904017857144,0.5754743303571428,-0.8108956473214286,-4220.571428571428,2595.714285714286,-1201.142857142857,100.46526227678572,1.5388706752232224,-171.08224051339286,3.49,0.0,0.02294921875,0.9677734375,-0.23583984375,-2.62451171875,0.54931640625,0.6103515625,-118.0,2401.0,5179.0,102.8594970703125,-0.8294677734375,133.08837890625,3.55,1.000000000000112,-0.07561383928571433,0.923828125,0.3905552455357143,-0.46212332589285465,-1.395089285714285,0.9504045758928547,943.7142857142859,2723.428571428571,-3527.0,67.3297119140625,4.04296875,2.296142578125,3.56
1.0475,2051,2051,289456,18216.208984375,25676.576171875,7.267367779413133,-4.046100138503431,5.499999999999838,-0.0014474051339285422,0.9788295200892857,-0.17522321428571433,-2.3781912667410676,0.6953648158482544,-0.8043561662946407,-4220.357142857143,2596.321428571429,-1202.4642857142862,100.46428135463168,1.5392630440848336,-171.08106340680803,3.49,0.500000000000167,0.022809709821428527,0.9678780691964286,-0.2362932477678573,-2.6375906808035756,0.5667550223214342,0.6103515625,-117.71428571428562,2400.142857142857,5177.642857142857,102.8583199637277,-0.8294677734375,133.08877127511164,3.55,0.49999999999994493,-0.07540457589285712,0.923828125,0.39059012276785715,-0.4752022879464302,-1.3994489397321435,0.9634835379464302,942.8571428571428,2725.214285714286,-3526.5,67.3297119140625,4.04296875,2.296142578125,3.56
1.048,2052,2052,289456,18215.728515625,25675.615234375,4.578623314659102,-2.0660704293749657,4.999999999999893,-0.0013602120535714092,0.9789341517857143,-0.17536272321428575,-2.367292131696426,0.8152553013393122,-0.7978166852678557,-4220.142857142857,2596.9285714285716,-1203.7857142857147,100.4633004324777,1.5396554129464164,-171.07988630022322,3.49,1.000000000000112,0.022670200892857116,0.9679827008928572,-0.23674665178571438,-2.6506696428571455,0.5841936383928604,0.6103515625,-117.42857142857137,2399.285714285714,5176.285714285714,102.85714285714289,-0.8294677734375,133.08916364397322,3.55,0.0,-0.0751953125,0.923828125,0.390625,-0.48828125,-1.40380859375,0.9765625,942.0,2727.0,-3526.0,67.3297119140625,4.04296875,2.296142578125,3.56
1.0485,2053,2053,289457,18216.328125,25675.375,1.7884326748419497,-0.6219287180456332,4.4999999999999485,-0.0012730189732142762,0.9790387834821429,-0.17550223214285715,-2.3563929966517847,0.9351457868303701,-0.7912772042410707,-4219.928571428572,2597.535714285714,-1205.1071428571431,100.46231951032365,1.5400477818080276,-171.0787091936384,3.49,1.5000000000000568,0.022530691964285705,0.9680873325892857,-0.23720005580357145,-2.6637486049107153,0.6016322544642868,0.6103515625,-117.14285714285712,2398.4285714285716,5174.928571428572,102.85596575055803,-0.8294677734375,133.0895560128348,3.55,0.49999999999994493,-0.07488141741071432,0.9237583705357143,0.39079938616071425,-0.47956194196428653,-1.3863699776785732,0.9940011160714269,941.1428571428572,2726.5714285714284,-3526.5714285714284,67.3297119140625,4.042576381138389,2.2981044224330276,3.56
1.049,2054,2054,289457,18214.404296875,25677.779296875,-1.5823347114031412,2.955147944665935,4.0000000000000036,-0.0011858258928571428,0.9791434151785714,-0.17564174107142858,-2.345493861607143,1.0550362723214288,-0.7847377232142857,-4219.714285714285,2598.1428571428573,-1206.4285714285713,100.46133858816961,1.5404401506696388,-171.07753208705358,3.49,2.0000000000000018,0.022391183035714295,0.9681919642857143,-0.23765345982142855,-2.6768275669642847,0.6190708705357132,0.6103515625,-116.85714285714288,2397.5714285714284,5173.571428571428,102.85478864397322,-0.8294677734375,133.08994838169644,3.55,0.9999999999998899,-0.07456752232142863,0.9236886160714286,0.39097377232142855,-0.47084263392857306,-1.3689313616071461,1.0114397321428539,940.2857142857144,2726.1428571428573,-3527.142857142857,67.3297119140625,4.042184012276778,2.3000662667410836,3.56
1.0495,2055,2055,289458,18218.4921875,25680.544921875,0.5597762733703409,6.407229698436626,3.4999999999998366,-0.001098632812499971,0.979248046875,-0.17578125000000006,-2.3345947265624964,1.17492675781254,-0.7781982421874978,-4219.5,2598.75,-1207.7500000000005,100.46035766601562,1.54083251953125,-171.07635498046875,3.49,2.5000000000001688,0.02225167410714282,0.9682965959821429,-0.23810686383928584,-2.6899065290178603,0.6365094866071472,0.6103515625,-116.5714285714285,2396.7142857142853,5172.214285714285,102.85361153738836,-0.8294677734375,133.09034075055803,3.55,1.5000000000000568,-0.07425362723214281,0.9236188616071428,0.3911481584821429,-0.46212332589285576,-1.3514927455357115,1.0288783482142885,939.4285714285713,2725.714285714286,-3527.714285714286,67.3297119140625,4.041791643415166,2.302028111049111,3.56
1.05,2056,2056,289458,18220.173828125,25677.8984375,0.23937896176885687,3.1482767368188833,2.9999999999998916,-0.0010114397321428377,0.9793526785714286,-0.17592075892857145,-2.3236955915178545,1.2948172433035983,-0.7716587611607129,-4219.285714285715,2599.357142857143,-1209.071428571429,100.45937674386164,1.5412248883928612,-171.07517787388392,3.49,3.0000000000001137,0.02211216517857141,0.9684012276785714,-0.2385602678571429,-2.70298549107143,0.6539481026785736,0.6103515625,-116.28571428571425,2395.8571428571427,5170.857142857143,102.85243443080356,-0.8294677734375,133.0907331194196,3.55,2.0000000000000018,-0.07393973214285712,0.9235491071428571,0.39132254464285715,-0.4534040178571423,-1.3340541294642847,1.0463169642857153,938.5714285714286,2725.285714285714,-3528.285714285714,67.3297119140625,4.041399274553584,2.303989955357139,3.56
1.0505,2057,2057,289459,18224.982421875,25677.779296875,2.104253452922899,0.3154146266972677,2.4999999999999467,-0.0009242466517857045,0.9794573102678572,-0.17606026785714288,-2.312796456473213,1.4147077287946561,-0.7651192801339278,-4219.071428571428,2599.964285714286,-1210.3928571428573,100.4583958217076,1.5416172572544724,-171.0740007672991,3.49,3.5000000000000586,0.02197265625,0.968505859375,-0.239013671875,-2.716064453125,0.67138671875,0.6103515625,-116.0,2395.0,5169.5,102.85125732421875,-0.8294677734375,133.09112548828125,3.55,2.4999999999999467,-0.07362583705357144,0.9234793526785714,0.3914969308035714,-0.4446847098214288,-1.3166155133928577,1.0637555803571423,937.7142857142858,2724.8571428571427,-3528.8571428571427,67.3297119140625,4.041006905691972,2.3059517996651664,3.56
1.051,2058,2058,289459,18225.462890625,25679.580078125,-0.296102394521931,-1.2357946749831896,2.0000000000000018,-0.0008370535714285715,0.9795619419642857,-0.17619977678571427,-2.3018973214285716,1.534598214285714,-0.7585797991071429,-4218.857142857143,2600.5714285714284,-1211.7142857142858,100.45741489955356,1.5420096261160836,-171.07282366071428,3.49,3.0000000000001137,0.02183314732142859,0.9686104910714286,-0.2394670758928571,-2.72914341517857,0.6888253348214264,0.6103515625,-115.71428571428575,2394.1428571428573,5168.142857142857,102.85008021763394,-0.8294677734375,133.0915178571429,3.55,2.9999999999998916,-0.07331194196428575,0.9234095982142857,0.3916713169642857,-0.4359654017857154,-1.2991768973214308,1.0811941964285692,936.857142857143,2724.4285714285716,-3529.4285714285716,67.3297119140625,4.040614536830361,2.3079136439732224,3.56
1.0515,2059,2059,289460,18229.55078125,25678.017578125,1.531185628730431,-3.0186566816106772,1.4999999999998348,-0.0007498604910713995,0.9796665736607143,-0.17633928571428575,-2.290998186383925,1.6544886997768256,-0.752040318080355,-4218.642857142857,2601.1785714285716,-1213.0357142857147,100.45643397739957,1.5424019949776664,-171.07164655412947,3.49,2.4999999999999467,0.021693638392857116,0.9687151227678572,-0.23992047991071438,-2.7422223772321455,0.7062639508928604,0.6103515625,-115.42857142857137,2393.285714285714,5166.785714285714,102.84890311104914,-0.8294677734375,133.09191022600447,3.55,3.4999999999998366,-0.07299804687499993,0.92333984375,0.39184570312500006,-0.42724609374999806,-1.2817382812499962,1.0986328125000038,935.9999999999998,2724.0,-3530.0,67.3297119140625,4.04022216796875,2.30987548828125,3.56
1.052,2060,2060,289460,18228.708984375,25677.177734375,-0.8382783777378293,-2.9164094067922015,0.9999999999998899,-0.0006626674107142664,0.9797712053571429,-0.17647879464285718,-2.2800990513392834,1.7743791852678839,-0.74550083705357,-4218.428571428572,2601.785714285714,-1214.3571428571431,100.45545305524553,1.5427943638392776,-171.07046944754464,3.49,2.0000000000000018,0.021554129464285705,0.9688197544642857,-0.24037388392857145,-2.7553013392857153,0.7237025669642868,0.6103515625,-115.14285714285712,2392.4285714285716,5165.428571428572,102.84772600446428,-0.8294677734375,133.09230259486606,3.55,2.9999999999998916,-0.07268415178571425,0.9232700892857143,0.3920200892857143,-0.4185267857142846,-1.2642996651785692,1.1160714285714308,935.142857142857,2723.5714285714284,-3530.5714285714284,67.3297119140625,4.039829799107139,2.3118373325892776,3.56
1.0525,2061,2061,289461,18232.796875,25679.4609375,-0.47949977037213753,1.6016871742903795,0.49999999999994493,-0.000575474330357133,0.9798758370535714,-0.17661830357142858,-2.2691999162946415,1.8942696707589421,-0.7389613560267849,-4218.214285714285,2602.3928571428573,-1215.6785714285716,100.45447213309149,1.5431867327008888,-171.06929234095983,3.49,1.5000000000000568,0.021414620535714295,0.9689243861607143,-0.24082728794642855,-2.7683803013392847,0.7411411830357132,0.6103515625,-114.85714285714288,2391.5714285714284,5164.071428571428,102.84654889787947,-0.8294677734375,133.0926949637277,3.55,2.4999999999999467,-0.07237025669642856,0.9232003348214286,0.3921944754464286,-0.4098074776785712,-1.2468610491071423,1.1335100446428577,934.2857142857142,2723.1428571428573,-3531.1428571428573,67.3297119140625,4.039437430245528,2.3137991768973336,3.56
1.053,2062,2062,289461,18233.7578125,25678.138671875,-2.122792147200295,1.7539305055340506,0.0,-0.00048828125,0.97998046875,-0.1767578125,-2.25830078125,2.01416015625,-0.732421875,-4218.0,2603.0,-1217.0,100.4534912109375,1.5435791015625,-171.068115234375,3.49,1.000000000000112,0.021275111607142884,0.9690290178571428,-0.24128069196428562,-2.7814592633928545,0.7585797991071396,0.6103515625,-114.57142857142863,2390.714285714286,5162.714285714286,102.84537179129461,-0.8294677734375,133.09308733258928,3.55,2.0000000000000018,-0.07205636160714288,0.9231305803571429,0.39236886160714285,-0.4010881696428577,-1.2294224330357153,1.1509486607142847,933.4285714285714,2722.714285714286,-3531.714285714286,67.3297119140625,4.039045061383916,2.315761021205361,3.56
1.0535,2063,2063,289462,18236.763671875,25679.822265625,-1.223686113620277,4.595586145683113,0.500000000000167,-0.0005405970982143031,0.9799979073660714,-0.17682756696428573,-2.2474016462053537,2.0185198102678585,-0.7237025669642828,-4217.642857142857,2603.285714285714,-1216.2142857142856,100.45309884207586,1.5435791015625,-171.0675266810826,3.49,0.49999999999994493,0.02113560267857141,0.9691336495535714,-0.2417340959821429,-2.79453822544643,0.7760184151785736,0.6103515625,-114.28571428571425,2389.8571428571427,5161.357142857143,102.8441946847098,-0.8294677734375,133.09347970145086,3.55,1.4999999999998348,-0.07174246651785705,0.9230608258928571,0.3925432477678572,-0.39236886160714035,-1.2119838169642807,1.1683872767857193,932.5714285714283,2722.285714285714,-3532.2857142857147,67.3297119140625,4.038652692522334,2.317722865513389,3.56
1.054,2064,2064,289462,18234.478515625,25676.095703125,-4.718536140354995,1.8220190280854318,1.000000000000112,-0.0005929129464285831,0.9800153459821429,-0.17689732142857145,-2.2365025111607117,2.0228794642857153,-0.7149832589285695,-4217.285714285714,2603.5714285714284,-1215.4285714285713,100.45270647321428,1.5435791015625,-171.06693812779017,3.49,0.0,0.02099609375,0.96923828125,-0.2421875,-2.8076171875,0.79345703125,0.6103515625,-114.0,2389.0,5160.0,102.843017578125,-0.8294677734375,133.0938720703125,3.55,0.9999999999998899,-0.07142857142857137,0.9229910714285714,0.39271763392857145,-0.38364955357142694,-1.1945452008928539,1.1858258928571461,931.7142857142856,2721.8571428571427,-3532.857142857143,67.3297119140625,4.038260323660722,2.3196847098214164,3.56
1.0545,2065,2065,289463,18237.123046875,25681.986328125,-4.408617664694006,7.517295388350039,1.5000000000000568,-0.000645228794642863,0.9800327845982143,-0.17696707589285715,-2.2256033761160703,2.027239118303572,-0.7062639508928562,-4216.928571428572,2603.8571428571427,-1214.642857142857,100.4523141043527,1.5435791015625,-171.06634957449776,3.49,0.49999999999994493,0.020821707589285733,0.9688197544642858,-0.24236188616071427,-2.772739955357147,0.8217947823660683,0.6212506975446417,-114.14285714285712,2388.0,5161.357142857143,102.8418404715402,-0.8300563267299026,133.09485299246649,3.55,0.49999999999994493,-0.07111467633928568,0.9229213169642857,0.39289202008928575,-0.37493024553571347,-1.1771065848214268,1.2032645089285732,930.8571428571428,2721.4285714285716,-3533.4285714285716,67.3297119140625,4.037867954799111,2.3216465541294724,3.56
1.055,2066,2066,289463,18240.248046875,25681.625,-3.4158533458578275,6.149756304856831,2.0000000000000018,-0.0006975446428571429,0.9800502232142857,-0.17703683035714285,-2.2147042410714284,2.0315987723214284,-0.6975446428571429,-4216.571428571428,2604.1428571428573,-1213.857142857143,100.45192173549106,1.5435791015625,-171.06576102120536,3.49,0.9999999999998899,0.020647321428571466,0.9684012276785715,-0.24253627232142852,-2.7378627232142936,0.8501325334821366,0.6321498325892833,-114.28571428571425,2387.0,5162.714285714285,102.84066336495539,-0.8306448800223336,133.09583391462053,3.55,0.0,-0.07080078125,0.9228515625,0.39306640625,-0.3662109375,-1.15966796875,1.220703125,930.0,2721.0,-3534.0,67.3297119140625,4.0374755859375,2.3236083984375,3.56
1.0555,2067,2067,289464,18243.494140625,25681.384765625,-1.5079691272865086,4.998678040626763,2.5000000000001688,-0.000749860491071446,0.9800676618303571,-0.1771065848214286,-2.203805106026782,2.0359584263392874,-0.6888253348214257,-4216.214285714285,2604.4285714285716,-1213.0714285714282,100.45152936662947,1.5435791015625,-171.06517246791296,3.49,1.5000000000000568,0.020472935267857123,0.9679827008928571,-0.24271065848214288,-2.702985491071425,0.8784702845982174,0.6430489676339298,-114.42857142857144,2386.0,5164.071428571428,102.83948625837053,-0.8312334333147362,133.09681483677457,3.55,0.500000000000167,-0.07073102678571426,0.9227818080357143,0.39310128348214285,-0.3182547433035562,-1.1465890066964244,1.211983816964283,929.7857142857142,2719.642857142857,-3534.0714285714284,67.32931954520089,4.037867954799111,2.3236083984375,3.56
1.056,2068,2068,289464,18240.609375,25683.548828125,-5.113695639192486,6.45806170548496,3.0000000000001137,-0.000802176339285726,0.9800851004464286,-0.1771763392857143,-2.1929059709821406,2.0403180803571437,-0.6801060267857123,-4215.857142857143,2604.714285714286,-1212.2857142857142,100.45113699776789,1.5435791015625,-171.06458391462053,3.49,2.0000000000000018,0.020298549107142856,0.9675641741071429,-0.24288504464285715,-2.6681082589285716,0.9068080357142857,0.6539481026785714,-114.57142857142857,2385.0,5165.428571428572,102.83830915178572,-0.8318219866071388,133.09779575892856,3.55,1.000000000000112,-0.07066127232142856,0.9227120535714286,0.3931361607142857,-0.27029854910713375,-1.1335100446428545,1.2032645089285698,929.5714285714286,2718.285714285714,-3534.1428571428573,67.32892717633928,4.038260323660722,2.3236083984375,3.56
1.0565,2069,2069,289465,18243.25390625,25683.427734375,-4.9726018739832885,6.262078960888328,3.5000000000000586,-0.0008544921875000057,0.9801025390625,-0.17724609375,-2.1820068359374987,2.0446777343750004,-0.671386718749999,-4215.5,2605.0,-1211.5,100.45074462890625,1.5435791015625,-171.06399536132812,3.49,2.4999999999999467,0.02012416294642859,0.9671456473214286,-0.2430594308035714,-2.633231026785718,0.935145786830354,0.6648472377232131,-114.7142857142857,2384.0,5166.785714285714,102.83713204520086,-0.8324105398995414,133.0987766810826,3.55,1.5000000000000568,-0.07059151785714285,0.9226422991071429,0.39317103794642855,-0.22234235491071125,-1.120431082589285,1.1945452008928565,929.3571428571429,2716.9285714285716,-3534.214285714286,67.3285348074777,4.038652692522334,2.3236083984375,3.56
1.057,2070,2070,289465,18244.3359375,25682.107421875,-5.357569354474034,4.171451052552325,4.0000000000000036,-0.0009068080357142857,0.9801199776785714,-0.17731584821428573,-2.171107700892857,2.049037388392857,-0.6626674107142857,-4215.142857142857,2605.285714285714,-1210.7142857142858,100.45035226004461,1.5435791015625,-171.06340680803572,3.49,2.9999999999998916,0.019949776785714326,0.9667271205357144,-0.24323381696428567,-2.5983537946428648,0.9634835379464223,0.6757463727678548,-114.85714285714282,2383.0,5168.142857142857,102.83595493861606,-0.8329990931919724,133.09975760323664,3.55,2.0000000000000018,-0.07052176339285715,0.9225725446428571,0.39320591517857145,-0.17438616071428875,-1.107352120535715,1.1858258928571435,929.1428571428571,2715.5714285714284,-3534.285714285714,67.32814243861606,4.039045061383916,2.3236083984375,3.56
1.0575,2071,2071,289466,18245.296875,25679.4609375,-6.6462885582684805,0.8486601975719168,4.5000000000001705,-0.0009591238839285888,0.9801374162946429,-0.17738560267857145,-2.160208565848211,2.0533970424107157,-0.6539481026785685,-4214.785714285714,2605.5714285714284,-1209.928571428571,100.44995989118303,1.5435791015625,-171.0628182547433,3.49,3.5000000000000586,0.01977539062499998,0.96630859375,-0.24340820312500003,-2.563476562499996,0.9918212890625031,0.6866455078125012,-115.00000000000001,2382.0,5169.5,102.83477783203125,-0.833587646484375,133.10073852539062,3.55,2.5000000000001688,-0.07045200892857141,0.9225027901785714,0.3932407924107143,-0.126429966517845,-1.0942731584821395,1.1771065848214264,928.9285714285713,2714.2142857142853,-3534.3571428571427,67.32775006975447,4.039437430245528,2.3236083984375,3.56
1.058,2072,2072,289466,18248.423828125,25678.982421875,-5.985889472341123,0.8829192685428557,5.0000000000001155,-0.0010114397321428687,0.9801548549107143,-0.17745535714285715,-2.149309430803569,2.0577566964285725,-0.6452287946428552,-4214.428571428572,2605.857142857143,-1209.1428571428569,100.44956752232144,1.5435791015625,-171.0622297014509,3.49,4.0000000000000036,0.019601004464285716,0.9658900669642857,-0.24358258928571427,-2.528599330357143,1.0201590401785714,0.6975446428571428,-115.14285714285714,2381.0,5170.857142857143,102.83360072544644,-0.8341761997767776,133.1017194475446,3.55,3.0000000000001137,-0.07038225446428571,0.9224330357142857,0.39327566964285715,-0.0784737723214225,-1.0811941964285698,1.168387276785713,928.7142857142857,2712.8571428571427,-3534.4285714285716,67.32735770089286,4.039829799107139,2.3236083984375,3.56
1.0585,2073,2073,289467,18247.099609375,25679.822265625,-7.692458547858674,0.9140773746435191,5.50000000000006,-0.0010637555803571486,0.9801722935267857,-0.17752511160714288,-2.1384102957589275,2.0621163504464293,-0.6365094866071419,-4214.071428571428,2606.1428571428573,-1208.3571428571427,100.4491751534598,1.5435791015625,-171.0616411481585,3.49,4.4999999999999485,0.01942661830357145,0.9654715401785715,-0.24375697544642855,-2.4937220982142896,1.0484967912946397,0.7084437779017845,-115.28571428571426,2380.0,5172.214285714285,102.83242361886164,-0.8347647530692086,133.10270036969865,3.55,3.5000000000000586,-0.0703125,0.92236328125,0.393310546875,-0.030517578125,-1.068115234375,1.15966796875,928.5,2711.5,-3534.5,67.32696533203125,4.04022216796875,2.3236083984375,3.56
1.059,2074,2074,289467,18245.177734375,25679.220703125,-9.429801379231996,0.8488521356863452,6.000000000000005,-0.0011160714285714285,0.9801897321428571,-0.17759486607142858,-2.1275111607142856,2.0664760044642856,-0.6277901785714286,-4213.714285714285,2606.4285714285716,-1207.5714285714287,100.44878278459822,1.5435791015625,-171.06105259486608,3.49,4.999999999999893,0.019252232142857182,0.9650530133928572,-0.24393136160714282,-2.4588448660714364,1.076834542410708,0.7193429129464262,-115.4285714285714,2379.0,5173.571428571428,102.83124651227678,-0.8353533063616112,133.1036812918527,3.55,3.0000000000001137,-0.07024274553571429,0.9222935267857143,0.39334542410714285,0.017438616071422497,-1.0550362723214302,1.150948660714287,928.2857142857143,2710.1428571428573,-3534.5714285714284,67.32657296316964,4.040614536830361,2.3236083984375,3.56
1.0595,2075,2075,289468,18246.859375,25676.095703125,-8.352881702182835,-0.9596732312123845,6.500000000000172,-0.0011683872767857318,0.9802071707589286,-0.1776646205357143,-2.1166120256696392,2.070835658482144,-0.6190708705357114,-4213.357142857143,2606.714285714286,-1206.785714285714,100.44839041573664,1.5435791015625,-171.06046404157365,3.49,5.50000000000006,0.01907784598214284,0.9646344866071428,-0.24410574776785715,-2.4239676339285676,1.105172293526789,0.7302420479910726,-115.57142857142858,2378.0,5174.928571428572,102.83006940569197,-0.8359418596540138,133.10466221400668,3.55,2.4999999999999467,-0.07017299107142856,0.9222237723214286,0.3933803013392857,0.06539481026786625,-1.0419573102678545,1.1422293526785698,928.0714285714286,2708.785714285714,-3534.6428571428573,67.32618059430803,4.041006905691972,2.3236083984375,3.56
1.06,2076,2076,289468,18253.591796875,25676.095703125,-1.620117612984091,-0.8454257124418847,6.999999999999895,-0.0012207031250000115,0.980224609375,-0.17773437500000003,-2.105712890624998,2.075195312500001,-0.6103515624999981,-4213.0,2607.0,-1205.9999999999998,100.447998046875,1.5435791015625,-171.05987548828125,3.49,6.000000000000005,0.018903459821428572,0.9642159598214286,-0.24428013392857142,-2.3890904017857144,1.1335100446428572,0.7411411830357143,-115.71428571428571,2377.0,5176.285714285715,102.82889229910711,-0.8365304129464164,133.10564313616072,3.55,2.0000000000000018,-0.07010323660714285,0.9221540178571429,0.39341517857142855,0.11335100446428881,-1.028878348214285,1.1335100446428565,927.8571428571429,2707.4285714285716,-3534.714285714286,67.32578822544644,4.041399274553584,2.3236083984375,3.56
1.0605,2077,2077,289469,18254.431640625,25673.330078125,-3.3045229992423737,-4.684100545284828,6.49999999999995,-0.0012730189732142916,0.9802420479910714,-0.17780412946428573,-2.094813755580356,2.0795549665178577,-0.6016322544642847,-4212.642857142857,2607.285714285714,-1205.2142857142856,100.44760567801336,1.5435791015625,-171.05928693498885,3.49,6.49999999999995,0.018729073660714305,0.9637974330357143,-0.2444545200892857,-2.354213169642861,1.1618477957589255,0.7520403180803559,-115.85714285714285,2376.0,5177.642857142857,102.8277151925223,-0.8371189662388474,133.10662405831476,3.55,1.5000000000000568,-0.07003348214285715,0.9220842633928571,0.39345005580357145,0.1613071986607112,-1.015799386160715,1.1247907366071435,927.6428571428571,2706.0714285714284,-3534.785714285714,67.3253958565848,4.041791643415166,2.3236083984375,3.56
1.061,2078,2078,289469,18254.431640625,25670.806640625,-5.8277471030960095,-7.0871880030456165,6.000000000000005,-0.0013253348214285715,0.9802594866071429,-0.17787388392857142,-2.0839146205357144,2.0839146205357144,-0.5929129464285714,-4212.285714285715,2607.5714285714284,-1204.4285714285713,100.44721330915178,1.5435791015625,-171.05869838169642,3.49,6.999999999999895,0.018554687500000038,0.9633789062500001,-0.24462890624999997,-2.319335937500008,1.1901855468749938,0.7629394531249976,-115.99999999999997,2375.0,5179.0,102.8265380859375,-0.83770751953125,133.10760498046875,3.55,1.000000000000112,-0.06996372767857144,0.9220145089285714,0.3934849330357143,0.2092633928571337,-1.0027204241071455,1.1160714285714302,927.4285714285714,2704.714285714286,-3534.8571428571427,67.32500348772322,4.042184012276778,2.3236083984375,3.56
1.0615,2079,2079,289470,18254.072265625,25673.091796875,-7.901388843840104,-2.88747993815187,5.499999999999838,-0.0013776506696428746,0.9802769252232143,-0.17794363839285718,-2.0730154854910676,2.088274274553573,-0.5841936383928542,-4211.928571428572,2607.857142857143,-1203.6428571428569,100.4468209402902,1.5435791015625,-171.058109828404,3.49,6.49999999999995,0.018380301339285695,0.9629603794642857,-0.2448032924107143,-2.284458705357139,1.2185232979910745,0.7738385881696441,-116.14285714285715,2374.0,5180.357142857143,102.8253609793527,-0.8382960728236526,133.10858590262274,3.55,0.49999999999994493,-0.06989397321428571,0.9219447544642857,0.39351981026785715,0.2572195870535775,-0.9896414620535698,1.107352120535713,927.2142857142857,2703.3571428571427,-3534.9285714285716,67.32461111886161,4.042576381138389,2.3236083984375,3.56
1.062,2080,2080,289470,18257.197265625,25669.603515625,-5.152886309999966,-7.16724900131151,4.999999999999893,-0.0014299665178571545,0.9802943638392857,-0.17801339285714288,-2.062116350446426,2.0926339285714297,-0.5754743303571409,-4211.571428571428,2608.1428571428573,-1202.8571428571427,100.44642857142856,1.5435791015625,-171.0575212751116,3.49,6.000000000000005,0.018205915178571428,0.9625418526785714,-0.24497767857142858,-2.2495814732142856,1.2468610491071428,0.7847377232142857,-116.28571428571429,2373.0,5181.714285714285,102.82418387276789,-0.8388846261160836,133.10956682477678,3.55,0.0,-0.06982421875,0.921875,0.3935546875,0.30517578125,-0.9765625,1.0986328125,927.0,2702.0,-3535.0,67.32421875,4.04296875,2.3236083984375,3.56
1.0625,2081,2081,289471,18255.033203125,25673.5703125,-7.69744355158857,-4.115167848411252,4.4999999999999485,-0.0014822823660714344,0.9803118024553571,-0.17808314732142858,-2.0512172154017847,2.096993582589286,-0.5667550223214276,-4211.214285714285,2608.4285714285716,-1202.0714285714284,100.44603620256697,1.5435791015625,-171.0569327218192,3.49,5.50000000000006,0.01803152901785716,0.9621233258928572,-0.24515206473214285,-2.2147042410714324,1.275198800223211,0.7956368582589274,-116.42857142857142,2372.0,5183.071428571428,102.82300676618303,-0.8394731794084862,133.11054774693082,3.55,0.49999999999994493,-0.06968470982142859,0.9219447544642857,0.3934151785714286,0.3444126674107105,-0.9722028459821432,1.0855538504464297,929.2857142857141,2699.0000000000005,-3535.4285714285716,67.32421875,4.042576381138389,2.325962611607139,3.56
1.063,2082,2082,289471,18256.236328125,25676.455078125,-6.939114332412988,0.7097913485808149,4.0000000000000036,-0.0015345982142857143,0.9803292410714286,-0.17815290178571427,-2.040318080357143,2.101353236607143,-0.5580357142857143,-4210.857142857143,2608.714285714286,-1201.2857142857142,100.44564383370539,1.5435791015625,-171.05634416852678,3.49,5.0000000000001155,0.017857142857142898,0.9617047991071429,-0.2453264508928571,-2.179827008928579,1.3035365513392794,0.806535993303569,-116.57142857142854,2371.0,5184.428571428572,102.82182965959822,-0.8400617327008888,133.1115286690848,3.55,0.9999999999998899,-0.06954520089285716,0.9220145089285714,0.39327566964285715,0.3836495535714211,-0.9678431919642866,1.0724748883928596,931.5714285714281,2696.0000000000005,-3535.8571428571427,67.32421875,4.042184012276778,2.3283168247767776,3.56
1.0635000000000001,2083,2083,289472,18257.91796875,25672.130859375,-6.162758775169163,-1.8861020034701788,3.4999999999998366,-0.0015869140625000173,0.9803466796875,-0.17822265625000003,-2.0294189453124964,2.1057128906250013,-0.5493164062499971,-4210.5,2609.0,-1200.4999999999998,100.44525146484375,1.5435791015625,-171.05575561523438,3.49,4.4999999999999485,0.01768275669642855,0.9612862723214285,-0.24550083705357145,-2.1449497767857104,1.3318743024553603,0.8174351283482155,-116.71428571428574,2370.0,5185.785714285715,102.82065255301336,-0.8406502859932914,133.11250959123885,3.55,1.5000000000000568,-0.0694056919642857,0.9220842633928572,0.3931361607142857,0.42288643973214907,-0.9634835379464278,1.0593959263392836,933.8571428571432,2692.9999999999995,-3536.285714285714,67.32421875,4.041791643415166,2.3306710379464164,3.56
1.064,2084,2084,289472,18261.884765625,25675.853515625,-3.880493376821974,3.5485958325040006,2.9999999999998916,-0.0016392299107142975,0.9803641183035714,-0.17829241071428573,-2.0185198102678545,2.110072544642858,-0.5405970982142838,-4210.142857142857,2609.285714285714,-1199.7142857142856,100.44485909598211,1.5435791015625,-171.05516706194197,3.49,4.0000000000000036,0.017508370535714284,0.9608677455357143,-0.24567522321428573,-2.110072544642857,1.3602120535714286,0.8283342633928572,-116.85714285714286,2369.0,5187.142857142857,102.81947544642856,-0.8412388392857224,133.1134905133929,3.55,2.0000000000000018,-0.06926618303571427,0.9221540178571429,0.3929966517857143,0.46212332589285965,-0.9591238839285712,1.0463169642857135,936.1428571428573,2690.0,-3536.714285714286,67.32421875,4.041399274553584,2.3330252511160836,3.56
1.0645,2085,2085,289473,18258.638671875,25680.6640625,-6.350431696688426,7.976326299069237,2.4999999999999467,-0.0016915457589285771,0.9803815569196429,-0.17836216517857142,-2.007620675223213,2.114432198660715,-0.5318777901785705,-4209.785714285715,2609.5714285714284,-1198.9285714285713,100.44446672712053,1.5435791015625,-171.05457850864954,3.49,3.5000000000000586,0.01733398437500002,0.96044921875,-0.24584960937499997,-2.075195312500004,1.388549804687497,0.8392333984374988,-116.99999999999999,2368.0,5188.5,102.81829833984375,-0.841827392578125,133.11447143554688,3.55,2.4999999999999467,-0.06912667410714286,0.9222237723214286,0.39285714285714285,0.5013602120535702,-0.9547642299107144,1.0332380022321432,938.4285714285713,2687.0,-3537.1428571428573,67.32421875,4.041006905691972,2.3353794642857224,3.56
1.065,2086,2086,289473,18256.95703125,25681.625,-9.272334092992931,5.74891081896012,2.0000000000000018,-0.001743861607142857,0.9803989955357143,-0.17843191964285715,-1.9967215401785714,2.1187918526785716,-0.5231584821428572,-4209.428571428572,2609.8571428571427,-1198.142857142857,100.44407435825894,1.5435791015625,-171.05398995535714,3.49,3.0000000000001137,0.017159598214285754,0.9600306919642858,-0.24602399553571425,-2.0403180803571503,1.4168875558035652,0.8501325334821405,-117.14285714285711,2367.0,5189.857142857142,102.81712123325894,-0.8424159458705276,133.11545235770086,3.55,2.9999999999998916,-0.06898716517857145,0.9222935267857143,0.39271763392857145,0.5405970982142807,-0.9504045758928577,1.0201590401785732,940.7142857142854,2684.0000000000005,-3537.5714285714284,67.32421875,4.040614536830361,2.337733677455361,3.56
1.0655000000000001,2087,2087,289474,18258.759765625,25678.982421875,-5.387848742797817,-0.39230618060344824,1.4999999999998348,-0.0017961774553571603,0.9804164341517857,-0.17850167410714288,-1.9858224051339248,2.12315150669643,-0.5144391741071399,-4209.071428571428,2610.1428571428573,-1197.3571428571427,100.4436819893973,1.5435791015625,-171.05340140206474,3.49,2.4999999999999467,0.01698521205357141,0.9596121651785714,-0.2461983816964286,-2.005440848214282,1.445225306919646,0.8610316685267869,-117.2857142857143,2366.0,5191.214285714286,102.81594412667414,-0.8430044991629586,133.1164332798549,3.55,3.4999999999998366,-0.06884765624999997,0.92236328125,0.39257812499999994,0.5798339843750087,-0.946044921874999,1.0070800781249971,943.0000000000005,2680.9999999999995,-3538.0,67.32421875,4.04022216796875,2.340087890625,3.56
1.066,2088,2088,289474,18259.361328125,25674.892578125,-4.218362308913082,-4.54763445296679,0.9999999999998899,-0.0018484933035714402,0.9804338727678571,-0.17857142857142858,-1.9749232700892834,2.1275111607142865,-0.5057198660714266,-4208.714285714285,2610.4285714285716,-1196.5714285714284,100.44328962053572,1.5435791015625,-171.05281284877233,3.49,2.0000000000000018,0.016810825892857144,0.9591936383928571,-0.24637276785714285,-1.9705636160714286,1.4735630580357144,0.8719308035714286,-117.42857142857143,2365.0,5192.571428571428,102.81476702008928,-0.8435930524553612,133.11741420200894,3.55,2.9999999999998916,-0.06870814732142855,0.9224330357142857,0.39243861607142855,0.6190708705357193,-0.9416852678571423,0.9940011160714269,945.2857142857146,2677.9999999999995,-3538.4285714285716,67.32421875,4.039829799107139,2.342442103794639,3.56
1.0665,2089,2089,289475,18259.720703125,25673.931640625,-3.0792051706765386,-4.742249279314686,0.49999999999994493,-0.0019008091517857201,0.9804513113839286,-0.1786411830357143,-1.9640241350446417,2.1318708147321432,-0.4970005580357133,-4208.357142857143,2610.714285714286,-1195.7857142857142,100.44289725167414,1.5435791015625,-171.0522242954799,3.49,1.5000000000000568,0.016636439732142877,0.9587751116071429,-0.24654715401785712,-1.9356863839285752,1.5019008091517825,0.8828299386160703,-117.57142857142856,2364.0,5193.928571428572,102.81358991350447,-0.8441816057477638,133.11839512416293,3.55,2.4999999999999467,-0.06856863839285714,0.9225027901785714,0.39229910714285715,0.6583077566964298,-0.9373256138392856,0.9809221540178568,947.5714285714287,2675.0,-3538.8571428571427,67.32421875,4.039437430245528,2.3447963169642776,3.56
1.067,2090,2090,289475,18259.720703125,25673.5703125,-3.5342135664864243,-3.1479385880677215,0.0,-0.001953125,0.98046875,-0.1787109375,-1.953125,2.13623046875,-0.48828125,-4208.0,2611.0,-1195.0,100.4425048828125,1.5435791015625,-171.0516357421875,3.49,1.000000000000112,0.01646205357142861,0.9583565848214287,-0.2467215401785714,-1.900809151785722,1.530238560267851,0.8937290736607119,-117.71428571428568,2363.0,5195.285714285714,102.81241280691961,-0.8447701590401664,133.11937604631697,3.55,2.0000000000000018,-0.06842912946428573,0.9225725446428571,0.3921595982142857,0.6975446428571404,-0.9329659598214288,0.9678431919642865,949.8571428571427,2672.0,-3539.285714285714,67.32421875,4.039045061383916,2.3471505301339164,3.56
1.0675000000000001,2091,2091,289476,18259.240234375,25673.5703125,-2.447158628421513,-0.19911590537431278,0.500000000000167,-0.002004523026315806,0.9807000411184211,-0.17847964638157887,-1.9788240131579031,2.0912571957236694,-0.47382555509867946,-4208.526315789474,2610.815789473684,-1195.5263157894738,100.44149298416943,1.5435791015625,-171.0506238435444,3.49,0.49999999999994493,0.016287667410714267,0.9579380580357142,-0.24689592633928573,-1.8659319196428532,1.5585763113839317,0.9046282087053583,-117.85714285714288,2362.0,5196.642857142857,102.8112357003348,-0.8453587123325974,133.12035696847101,3.55,1.4999999999998348,-0.06828962053571425,0.9226422991071429,0.39202008928571425,0.7367815290178683,-0.9286063058035702,0.9547642299107105,952.1428571428578,2668.999999999999,-3539.714285714286,67.32421875,4.038652692522334,2.3495047433035836,3.56
1.068,2092,2092,289476,18259.6015625,25674.7734375,-0.6591139058927986,3.4533370345391257,1.000000000000112,-0.0020559210526315897,0.9809313322368421,-0.17824835526315785,-2.0045230263157947,2.046283922697359,-0.45936986019736537,-4209.0526315789475,2610.6315789473683,-1196.0526315789475,100.4404810855263,1.5435791015625,-171.04961194490133,3.49,0.0,0.01611328125,0.95751953125,-0.2470703125,-1.8310546875,1.5869140625,0.91552734375,-118.0,2361.0,5198.0,102.81005859375,-0.845947265625,133.121337890625,3.55,0.9999999999998899,-0.06815011160714284,0.9227120535714286,0.39188058035714285,0.776018415178579,-0.9242466517857134,0.9416852678571404,954.4285714285719,2665.9999999999995,-3540.1428571428573,67.32421875,4.038260323660722,2.3518589564732224,3.56
1.0685,2093,2093,289477,18259.0,25673.8125,-1.0884466099794736,3.8977792092884904,1.5000000000000568,-0.0021073190789473732,0.9811626233552632,-0.1780170641447368,-2.0302220394736867,2.001310649671048,-0.44491416529605127,-4209.578947368421,2610.4473684210525,-1196.578947368421,100.43946918688323,1.5435791015625,-171.04860004625823,3.49,0.49999999999994493,0.015904017857142877,0.9574497767857143,-0.24710518973214285,-1.8223353794642865,1.5825544084821432,0.9242466517857134,-117.7857142857143,2362.428571428571,5198.714285714285,102.80927385602678,-0.8463396344866112,133.12173025948664,3.55,0.49999999999994493,-0.06801060267857141,0.9227818080357143,0.3917410714285714,0.8152553013392895,-0.9198869977678568,0.9286063058035702,956.7142857142859,2662.9999999999995,-3540.5714285714284,67.32421875,4.037867954799111,2.354213169642861,3.56
1.069,2094,2094,289477,18262.966796875,25674.291015625,3.632235398781197,5.165871939566804,2.0000000000000018,-0.002158717105263157,0.9813939144736842,-0.1777857730263158,-2.0559210526315783,1.9563373766447378,-0.43045847039473717,-4210.105263157895,2610.2631578947367,-1197.1052631578948,100.4384572882401,1.5435791015625,-171.04758814761513,3.49,0.9999999999998899,0.015694754464285754,0.9573800223214286,-0.2471400669642857,-1.8136160714285732,1.5781947544642865,0.9329659598214269,-117.57142857142861,2363.8571428571427,5199.428571428572,102.80848911830356,-0.8467320033482224,133.12212262834822,3.55,0.0,-0.06787109375,0.9228515625,0.3916015625,0.8544921875,-0.91552734375,0.91552734375,959.0,2660.0,-3541.0,67.32421875,4.0374755859375,2.3565673828125,3.56
1.0695000000000001,2095,2095,289478,18260.08203125,25673.931640625,1.037125337386033,5.6670952436660285,2.5000000000001688,-0.002210115131578963,0.9816252055921053,-0.17755448190789466,-2.0816200657894814,1.9113641036184075,-0.4160027754934167,-4210.631578947368,2610.078947368421,-1197.6315789473686,100.43744538959703,1.5435791015625,-171.04657624897203,3.49,1.5000000000000568,0.015485491071428539,0.9573102678571428,-0.24717494419642858,-1.8048967633928557,1.573835100446428,0.9416852678571442,-117.35714285714282,2365.2857142857147,5200.142857142857,102.80770438058039,-0.8471243722098336,133.1225149972098,3.55,0.500000000000167,-0.06780133928571426,0.9229213169642857,0.3914969308035714,0.8283342633928489,-0.9111676897321415,0.9024483816964244,957.9285714285711,2658.8571428571427,-3542.5000000000005,67.32421875,4.0374755859375,2.3565673828125,3.56
1.07,2096,2096,289478,18258.880859375,25675.9765625,0.8214564823012658,7.595640344234395,3.0000000000001137,-0.0022615131578947465,0.9818564967105263,-0.17732319078947364,-2.1073190789473735,1.8663908305920969,-0.40154708059210253,-4211.1578947368425,2609.8947368421054,-1198.1578947368423,100.43643349095396,1.5435791015625,-171.04556435032896,3.49,2.0000000000000018,0.015276227678571416,0.9572405133928571,-0.24720982142857142,-1.7961774553571423,1.5694754464285712,0.9504045758928577,-117.14285714285712,2366.714285714286,5200.857142857143,102.80691964285711,-0.8475167410714164,133.12290736607144,3.55,1.000000000000112,-0.06773158482142856,0.9229910714285714,0.39139229910714285,0.8021763392857093,-0.9068080357142849,0.8893694196428547,956.8571428571427,2657.7142857142853,-3544.0000000000005,67.32421875,4.0374755859375,2.3565673828125,3.56
1.0705,2097,2097,289479,18258.158203125,25675.494140625,0.4166255954375069,4.8420746976934925,3.5000000000000586,-0.00231291118421053,0.9820877878289473,-0.17709189967105263,-2.133018092105265,1.8214175575657863,-0.3870913856907885,-4211.684210526316,2609.7105263157896,-1198.6842105263158,100.43542159231083,1.5435791015625,-171.04455245168586,3.49,2.4999999999999467,0.015066964285714293,0.9571707589285714,-0.24724469866071427,-1.7874581473214288,1.5651157924107144,0.9591238839285712,-116.92857142857143,2368.142857142857,5201.571428571428,102.80613490513394,-0.8479091099330276,133.12329973493303,3.55,1.5000000000000568,-0.06766183035714285,0.9230608258928571,0.3912876674107143,0.7760184151785697,-0.9024483816964283,0.8762904575892849,955.7857142857142,2656.5714285714284,-3545.5,67.32421875,4.0374755859375,2.3565673828125,3.56
1.071,2098,2098,289479,18257.91796875,25684.029296875,1.1237000873439185,8.859220462343167,4.0000000000000036,-0.0023643092105263136,0.9823190789473684,-0.17686060855263158,-2.1587171052631566,1.7764442845394757,-0.37263569078947434,-4212.210526315789,2609.5263157894738,-1199.2105263157894,100.43440969366776,1.5435791015625,-171.04354055304276,3.49,2.9999999999998916,0.01485770089285717,0.9571010044642857,-0.24727957589285715,-1.7787388392857153,1.5607561383928577,0.9678431919642846,-116.71428571428574,2369.5714285714284,5202.285714285714,102.80535016741072,-0.8483014787946388,133.1236921037946,3.55,2.0000000000000018,-0.06759207589285715,0.9231305803571429,0.3911830357142857,0.7498604910714303,-0.8980887276785717,0.8632114955357151,954.7142857142858,2655.4285714285716,-3547.0,67.32421875,4.0374755859375,2.3565673828125,3.56
1.0715000000000001,2099,2099,289480,18258.0390625,25691.119140625,2.2860205626077246,13.02193401409849,4.5000000000001705,-0.0024157072368421197,0.9825503700657895,-0.17662931743421045,-2.1844161184210598,1.7314710115131453,-0.35817999588815386,-4212.736842105263,2609.342105263158,-1199.7368421052633,100.43339779502469,1.5435791015625,-171.04252865439966,3.49,3.4999999999998366,0.014648437499999953,0.95703125,-0.247314453125,-1.770019531249998,1.5563964843749991,0.9765625000000019,-116.49999999999996,2371.0000000000005,5203.0,102.8045654296875,-0.84869384765625,133.12408447265625,3.55,2.5000000000001688,-0.06752232142857141,0.9232003348214286,0.3910784040178571,0.7237025669642791,-0.8937290736607132,0.8501325334821396,953.6428571428569,2654.285714285714,-3548.5000000000005,67.32421875,4.0374755859375,2.3565673828125,3.56
1.072,2100,2100,289480,18257.4375,25690.0390625,3.7858228472331414,10.109473642236445,5.0000000000001155,-0.0024671052631579033,0.9827816611842106,-0.17639802631578944,-2.2101151315789513,1.6864977384868347,-0.3437243009868397,-4213.263157894737,2609.157894736842,-1200.2631578947369,100.43238589638156,1.5435791015625,-171.0415167557566,3.49,2.9999999999998916,0.01443917410714283,0.9569614955357143,-0.24734933035714285,-1.7613002232142847,1.5520368303571423,0.9852818080357154,-116.28571428571426,2372.4285714285716,5203.714285714286,102.80378069196428,-0.8490862165178612,133.1244768415179,3.55,3.0000000000001137,-0.06745256696428571,0.9232700892857143,0.39097377232142855,0.6975446428571395,-0.8893694196428565,0.8370535714285697,952.5714285714284,2653.142857142857,-3550.0,67.32421875,4.0374755859375,2.3565673828125,3.56
1.0725,2101,2101,289481,18253.591796875,25695.9296875,0.38072775398603304,14.116396288878159,5.50000000000006,-0.0025185032894736864,0.9830129523026316,-0.17616673519736842,-2.2358141447368434,1.6415244654605243,-0.32926860608552566,-4213.789473684211,2608.9736842105262,-1200.7894736842106,100.43137399773849,1.5435791015625,-171.0405048571135,3.49,2.4999999999999467,0.014229910714285707,0.9568917410714286,-0.24738420758928573,-1.7525809151785712,1.5476771763392856,0.9940011160714288,-116.07142857142857,2373.857142857143,5204.428571428572,102.80299595424106,-0.8494785853794724,133.12486921037947,3.55,3.5000000000000586,-0.0673828125,0.92333984375,0.390869140625,0.67138671875,-0.885009765625,0.823974609375,951.5,2652.0,-3551.5,67.32421875,4.0374755859375,2.3565673828125,3.56
1.073,2102,2102,289481,18254.3125,25701.697265625,2.554366339629956,17.06243766770361,6.000000000000005,-0.00256990131578947,0.9832442434210527,-0.17593544407894737,-2.261513157894735,1.5965511924342137,-0.3148129111842115,-4214.315789473684,2608.7894736842104,-1201.3157894736842,100.43036209909542,1.5435791015625,-171.0394929584704,3.49,2.0000000000000018,0.014020647321428586,0.9568219866071429,-0.24741908482142858,-1.7438616071428577,1.5433175223214288,1.0027204241071423,-115.85714285714288,2375.285714285714,5205.142857142857,102.80221121651789,-0.8498709542410836,133.12526157924106,3.55,3.0000000000001137,-0.06731305803571429,0.9234095982142857,0.39076450892857145,0.6452287946428604,-0.8806501116071435,0.8108956473214303,950.4285714285716,2650.857142857143,-3553.0,67.32421875,4.0374755859375,2.3565673828125,3.56
1.0735000000000001,2103,2103,289482,18253.83203125,25704.462890625,3.6428517225012413,16.36413610603503,6.500000000000172,-0.0026212993421052765,0.9834755345394738,-0.17570415296052624,-2.287212171052638,1.5515779194078831,-0.300357216282891,-4214.842105263158,2608.6052631578946,-1201.842105263158,100.42935020045229,1.5435791015625,-171.0384810598273,3.49,1.4999999999998348,0.013811383928571369,0.9567522321428571,-0.24745396205357145,-1.7351422991071404,1.5389578683035703,1.0114397321428596,-115.64285714285708,2376.7142857142862,5205.857142857143,102.80142647879461,-0.8502633231026664,133.1256539481027,3.55,2.4999999999999467,-0.06724330357142856,0.9234793526785714,0.39065987723214285,0.6190708705357093,-0.8762904575892849,0.7978166852678547,949.3571428571427,2649.7142857142853,-3554.5000000000005,67.32421875,4.0374755859375,2.3565673828125,3.56
1.074,2104,2104,289482,18254.193359375,25706.146484375,6.283261496564643,14.906373267703351,7.000000000000117,-0.00267269736842106,0.9837068256578948,-0.17547286184210523,-2.31291118421053,1.5066046463815725,-0.28590152138157693,-4215.368421052632,2608.4210526315787,-1202.3684210526317,100.42833830180922,1.5435791015625,-171.03746916118422,3.49,0.9999999999998899,0.013602120535714246,0.9566824776785714,-0.2474888392857143,-1.7264229910714268,1.5345982142857135,1.0201590401785732,-115.42857142857139,2378.1428571428573,5206.571428571428,102.80064174107144,-0.8506556919642776,133.12604631696428,3.55,2.0000000000000018,-0.06717354910714285,0.9235491071428571,0.3905552455357143,0.5929129464285697,-0.8719308035714283,0.7847377232142849,948.2857142857142,2648.5714285714284,-3556.0,67.32421875,4.0374755859375,2.3565673828125,3.56
1.0745,2105,2105,289483,18255.755859375,25701.8203125,7.955461226601445,7.064926375481477,7.500000000000062,-0.002724095394736843,0.9839381167763158,-0.1752415707236842,-2.3386101973684217,1.461631373355262,-0.27144582648026283,-4215.894736842105,2608.2368421052633,-1202.8947368421052,100.42732640316615,1.5435791015625,-171.03645726254112,3.49,0.49999999999994493,0.013392857142857123,0.9566127232142857,-0.24752371651785715,-1.7177036830357135,1.5302385602678568,1.0288783482142865,-115.2142857142857,2379.571428571429,5207.285714285715,102.79985700334822,-0.8510480608258888,133.12643868582586,3.55,1.5000000000000568,-0.06710379464285715,0.9236188616071429,0.3904506138392857,0.5667550223214303,-0.8675711495535717,0.7716587611607151,947.2142857142858,2647.4285714285716,-3557.5,67.32421875,4.0374755859375,2.3565673828125,3.56
1.075,2106,2106,289483,18259.0,25693.404296875,10.892357784849741,-2.3764700192112356,8.000000000000007,-0.0027754934210526268,0.9841694078947368,-0.1750102796052632,-2.3643092105263133,1.4166581003289516,-0.25699013157894873,-4216.421052631579,2608.0526315789475,-1203.421052631579,100.42631450452302,1.5435791015625,-171.03544536389802,3.49,0.0,0.01318359375,0.95654296875,-0.24755859375,-1.708984375,1.52587890625,1.03759765625,-115.0,2381.0,5208.0,102.799072265625,-0.8514404296875,133.1268310546875,3.55,1.000000000000112,-0.06703404017857144,0.9236886160714286,0.39034598214285715,0.5405970982142907,-0.8632114955357151,0.7585797991071453,946.1428571428573,2646.2857142857147,-3558.9999999999995,67.32421875,4.0374755859375,2.3565673828125,3.56
1.0755000000000001,2107,2107,289484,18263.689453125,25685.232421875,15.182297342239597,-9.878991091938929,8.500000000000174,-0.002826891447368433,0.984400699013158,-0.17477898848684206,-2.3900082236842164,1.3716848273026212,-0.2425344366776282,-4216.9473684210525,2607.8684210526317,-1203.9473684210527,100.42530260587995,1.5435791015625,-171.03443346525492,3.49,0.500000000000167,0.013316761363636407,0.9568536931818182,-0.24744762073863633,-1.7034357244318163,1.5785910866477444,1.0348233309659083,-114.13636363636336,2380.681818181818,5207.863636363636,102.79832319779831,-0.8521894975142175,133.12807950106537,3.55,0.49999999999994493,-0.06696428571428571,0.9237583705357143,0.39024135044642855,0.5144391741071396,-0.8588518415178565,0.7455008370535698,945.0714285714284,2645.142857142857,-3560.5,67.32421875,4.0374755859375,2.3565673828125,3.56
1.076,2108,2108,289484,18264.169921875,25676.9375,15.996366275933791,-15.867492937408134,9.000000000000119,-0.0028782894736842164,0.984631990131579,-0.17454769736842102,-2.4157072368421084,1.3267115542763106,-0.2280787417763141,-4217.473684210527,2607.684210526316,-1204.4736842105265,100.42429070723682,1.5435791015625,-171.03342156661185,3.49,1.000000000000112,0.013449928977272754,0.9571644176136365,-0.2473366477272727,-1.6978870738636354,1.6313032670454652,1.0320490056818177,-113.2727272727271,2380.3636363636365,5207.727272727273,102.79757412997162,-0.8529385653409065,133.1293279474432,3.55,0.0,-0.06689453125,0.923828125,0.39013671875,0.48828125,-0.8544921875,0.732421875,944.0,2644.0,-3562.0,67.32421875,4.0374755859375,2.3565673828125,3.56
1.0765,2109,2109,289485,18270.779296875,25678.380859375,19.363345029509976,-11.74010687124849,9.500000000000064,-0.0029296875,0.98486328125,-0.17431640625,-2.44140625,1.28173828125,-0.213623046875,-4218.0,2607.5,-1205.0,100.42327880859375,1.5435791015625,-171.03240966796875,3.49,1.5000000000000568,0.013583096590909102,0.9574751420454546,-0.2472256747159091,-1.6923384232954541,1.684015447443186,1.029274680397727,-112.40909090909084,2380.0454545454545,5207.590909090909,102.79682506214488,-0.853687633167624,133.130576393821,3.55,0.49999999999994493,-0.066845703125,0.9238525390625,0.3901123046875,0.47302246093750167,-0.8544921875,0.7293701171875003,944.05,2645.2,-3561.55,67.32394409179688,4.037750244140625,2.3565673828125,3.56
1.077,2110,2110,289485,18266.93359375,25680.181640625,14.23250422340731,-8.425129629348456,9.000000000000119,-0.0029810855263157836,0.985094572368421,-0.17408511513157898,-2.467105263157892,1.2367650082236894,-0.19916735197368585,-4218.526315789473,2607.315789473684,-1205.5263157894735,100.42226690995068,1.5435791015625,-171.03139776932565,3.49,2.0000000000000018,0.013716264204545449,0.9577858664772727,-0.24711470170454547,-1.686789772727273,1.736727627840907,1.0265003551136365,-111.54545454545458,2379.7272727272725,5207.454545454545,102.79607599431819,-0.854436700994313,133.13182484019887,3.55,0.9999999999998899,-0.066796875,0.923876953125,0.390087890625,0.4577636718750034,-0.8544921875,0.7263183593750007,944.1,2646.3999999999996,-3561.1,67.32366943359375,4.03802490234375,2.3565673828125,3.56
1.0775000000000001,2111,2111,289486,18265.8515625,25682.705078125,11.448157778019162,-5.224921138152568,8.499999999999952,-0.0030324835526315897,0.9853258634868421,-0.17385382401315785,-2.4928042763157947,1.191791735197359,-0.18471165707236542,-4219.0526315789475,2607.1315789473683,-1206.0526315789475,100.42125501130755,1.5435791015625,-171.03038587068258,3.49,2.5000000000001688,0.013849431818181856,0.958096590909091,-0.2470037286931818,-1.6812411221590893,1.7894398082386513,1.0237260298295447,-110.68181818181793,2379.409090909091,5207.318181818182,102.7953269264915,-0.8551857688210305,133.13307328657675,3.55,1.5000000000000568,-0.066748046875,0.9239013671875,0.3900634765625,0.44250488281249833,-0.8544921875,0.7232666015624997,944.15,2647.6,-3560.65,67.32339477539062,4.038299560546875,2.3565673828125,3.56
1.078,2112,2112,289486,18262.7265625,25680.904296875,6.985511140009061,-5.647708050219551,8.000000000000007,-0.0030838815789473732,0.9855571546052632,-0.1736225328947368,-2.5185032894736867,1.1468184621710484,-0.17025596217105127,-4219.578947368421,2606.9473684210525,-1206.578947368421,100.42024311266448,1.5435791015625,-171.02937397203948,3.49,3.0000000000001137,0.013982599431818203,0.9584073153409092,-0.24689275568181818,-1.6756924715909083,1.8421519886363722,1.0209517045454541,-109.81818181818167,2379.090909090909,5207.181818181818,102.79457785866475,-0.8559348366477195,133.1343217329545,3.55,2.0000000000000018,-0.06669921875,0.92392578125,0.3900390625,0.42724609375,-0.8544921875,0.72021484375,944.2,2648.8,-3560.2,67.3231201171875,4.03857421875,2.3565673828125,3.56
1.0785,2113,2113,289487,18267.173828125,25682.345703125,11.200107694036067,-4.341243723084178,7.500000000000062,-0.003135279605263157,0.9857884457236842,-0.1733912417763158,-2.5442023026315783,1.1018451891447378,-0.15580026726973717,-4220.105263157895,2606.7631578947367,-1207.1052631578948,100.41923121402135,1.5435791015625,-171.02836207339638,3.49,3.5000000000000586,0.014115767045454551,0.9587180397727273,-0.24678178267045453,-1.670143821022727,1.894864169034093,1.0181773792613635,-108.95454545454542,2378.7727272727275,5207.045454545455,102.79382879083806,-0.856683904474437,133.13557017933238,3.55,2.4999999999999467,-0.066650390625,0.9239501953125,0.3900146484375,0.41198730468750167,-0.8544921875,0.7171630859375003,944.25,2650.0,-3559.75,67.32284545898438,4.038848876953125,2.3565673828125,3.56
1.079,2114,2114,289487,18268.857421875,25683.548828125,12.318635343629726,-2.321081792733647,7.000000000000117,-0.00318667763157894,0.9860197368421052,-0.17315995065789477,-2.56990131578947,1.0568719161184275,-0.14134457236842307,-4220.631578947368,2606.5789473684213,-1207.6315789473683,100.41821931537828,1.5435791015625,-171.02735017475328,3.49,4.0000000000000036,0.014248934659090898,0.9590287642045454,-0.2466708096590909,-1.6645951704545459,1.947576349431814,1.015403053977273,-108.09090909090916,2378.4545454545455,5206.909090909091,102.79307972301137,-0.857432972301126,133.13681862571025,3.55,2.9999999999998916,-0.06660156250000002,0.923974609375,0.389990234375,0.3967285156250034,-0.8544921875,0.7141113281250007,944.3,2651.2,-3559.3,67.32257080078125,4.03912353515625,2.3565673828125,3.56
1.0795000000000001,2115,2115,289488,18269.697265625,25679.703125,11.292756405535785,-4.094581841564561,6.49999999999995,-0.0032380756578947465,0.9862510279605263,-0.17292865953947364,-2.5956003289473735,1.0118986430920969,-0.12688887746710253,-4221.1578947368425,2606.3947368421054,-1208.1578947368423,100.41720741673521,1.5435791015625,-171.0263382761102,3.49,4.5000000000001705,0.014382102272727305,0.9593394886363638,-0.24655983664772724,-1.6590465198863622,2.0002885298295583,1.0126287286931812,-107.22727272727252,2378.1363636363635,5206.772727272727,102.79233065518463,-0.8581820401278435,133.13806707208806,3.55,3.5000000000000586,-0.06655273437499999,0.9239990234375,0.3899658203125,0.38146972656249833,-0.8544921875,0.7110595703124997,944.35,2652.4,-3558.85,67.32229614257812,4.039398193359375,2.3565673828125,3.56
1.08,2116,2116,289488,18268.857421875,25680.6640625,9.419561063140153,-2.8756759367318265,6.000000000000005,-0.0032894736842105296,0.9864823190789473,-0.17269736842105263,-2.621299342105265,0.9669253700657865,-0.11243318256578849,-4221.684210526316,2606.2105263157896,-1208.6842105263158,100.41619551809208,1.5435791015625,-171.0253263774671,3.49,5.0000000000001155,0.014515269886363653,0.9596502130681819,-0.24644886363636362,-1.6534978693181812,2.053000710227279,1.0098544034090906,-106.36363636363626,2377.818181818182,5206.636363636364,102.79158158735794,-0.8589311079545325,133.13931551846588,3.55,4.0000000000000036,-0.06650390625,0.9240234375,0.38994140625,0.3662109375,-0.8544921875,0.7080078125,944.4,2653.6,-3558.4,67.322021484375,4.0396728515625,2.3565673828125,3.56
1.0805,2117,2117,289489,18271.021484375,25676.3359375,9.262354338278833,-7.033620700039725,5.50000000000006,-0.0033408717105263136,0.9867136101973684,-0.17246607730263158,-2.6469983552631566,0.9219520970394759,-0.09797748766447434,-4222.210526315789,2606.0263157894738,-1209.2105263157894,100.41518361944901,1.5435791015625,-171.024314478824,3.49,5.50000000000006,0.0146484375,0.9599609375,-0.246337890625,-1.64794921875,2.105712890625,1.007080078125,-105.5,2377.5,5206.5,102.79083251953125,-0.85968017578125,133.14056396484375,3.55,4.4999999999999485,-0.06645507812500001,0.9240478515625,0.3899169921875,0.35095214843750167,-0.8544921875,0.7049560546875003,944.45,2654.7999999999997,-3557.9500000000003,67.32174682617188,4.039947509765625,2.3565673828125,3.56
1.081,2118,2118,289489,18271.380859375,25677.177734375,7.218774502532229,-5.818619838732458,5.0000000000001155,-0.0033922697368420967,0.9869449013157895,-0.17223478618421056,-2.6726973684210487,0.8769788240131651,-0.08352179276316024,-4222.736842105263,2605.842105263158,-1209.7368421052631,100.41417172080594,1.5435791015625,-171.0233025801809,3.49,5.0000000000001155,0.014781605113636347,0.9602716619318181,-0.24622691761363638,-1.6424005681818188,2.158425071022721,1.0043057528409094,-104.63636363636374,2377.181818181818,5206.363636363636,102.79008345170456,-0.8604292436079675,133.14181241122162,3.55,4.999999999999893,-0.06640625000000001,0.924072265625,0.389892578125,0.3356933593750034,-0.8544921875,0.7019042968750007,944.5,2655.9999999999995,-3557.5,67.32147216796875,4.04022216796875,2.3565673828125,3.56
1.0815000000000001,2119,2119,289490,18271.501953125,25680.302734375,5.4083611953182675,-2.014548181486493,4.4999999999999485,-0.0034436677631579033,0.9871761924342105,-0.17200349506578944,-2.6983963815789513,0.8320055509868349,-0.06906609786183976,-4223.263157894737,2605.657894736842,-1210.2631578947369,100.41315982216281,1.5435791015625,-171.02229068153784,3.49,4.4999999999999485,0.014914772727272754,0.9605823863636365,-0.2461159446022727,-1.6368519176136354,2.2111372514204652,1.0015314275568177,-103.7727272727271,2376.8636363636365,5206.227272727273,102.78933438387787,-0.8611783114346565,133.14306085759944,3.55,4.4999999999999485,-0.06635742187499999,0.9240966796875,0.3898681640625,0.3204345703124983,-0.8544921875,0.6988525390624997,944.55,2657.2000000000003,-3557.0499999999997,67.32119750976562,4.040496826171875,2.3565673828125,3.56
1.082,2120,2120,289490,18269.939453125,25682.828125,3.0604201561999815,-0.9140263072355665,4.0000000000000036,-0.0034950657894736864,0.9874074835526316,-0.17177220394736842,-2.7240953947368434,0.7870322779605241,-0.05461040296052566,-4223.789473684211,2605.4736842105262,-1210.7894736842106,100.41214792351974,1.5435791015625,-171.02127878289474,3.49,4.0000000000000036,0.015047940340909102,0.9608931107954546,-0.2460049715909091,-1.6313032670454541,2.263849431818186,0.9987571022727271,-102.90909090909084,2376.5454545454545,5206.090909090909,102.78858531605113,-0.861927379261374,133.14430930397725,3.55,4.0000000000000036,-0.06630859375,0.92412109375,0.38984375,0.30517578125,-0.8544921875,0.69580078125,944.6,2658.4,-3556.6,67.3209228515625,4.040771484375,2.3565673828125,3.56
1.0825,2121,2121,289491,18268.857421875,25684.271484375,1.8676395330208244,-1.8674502536648596,3.5000000000000586,-0.0035464638157894704,0.9876387746710527,-0.17154091282894737,-2.749794407894735,0.7420590049342135,-0.04015470805921151,-4224.315789473684,2605.2894736842104,-1211.3157894736842,100.41113602487667,1.5435791015625,-171.02026688425164,3.49,3.5000000000000586,0.015181107954545449,0.9612038352272727,-0.24589399857954547,-1.625754616477273,2.316561612215907,0.9959827769886365,-102.04545454545458,2376.2272727272725,5205.954545454545,102.78783624822444,-0.862676447088063,133.14555775035512,3.55,3.5000000000000586,-0.06625976562500001,0.9241455078125,0.3898193359375,0.28991699218750167,-0.8544921875,0.6927490234375003,944.65,2659.6,-3556.15,67.32064819335938,4.041046142578125,2.3565673828125,3.56
1.083,2122,2122,289491,18271.021484375,25684.271484375,2.8411337500035954,-1.1029347760810917,3.0000000000001137,-0.0035978618421052535,0.9878700657894737,-0.17130962171052636,-2.7754934210526265,0.6970857319079031,-0.025699013157897466,-4224.8421052631575,2605.1052631578946,-1211.8421052631577,100.41012412623354,1.5435791015625,-171.01925498560854,3.49,3.0000000000001137,0.015314275568181797,0.9615145596590908,-0.24578302556818182,-1.6202059659090917,2.369273792613628,0.9932084517045459,-101.18181818181831,2375.909090909091,5205.818181818182,102.78708718039775,-0.8634255149147805,133.146806196733,3.55,3.0000000000001137,-0.06621093750000001,0.924169921875,0.389794921875,0.27465820312500344,-0.8544921875,0.6896972656250007,944.7,2660.7999999999997,-3555.7000000000003,67.32037353515625,4.04132080078125,2.3565673828125,3.56
1.0835000000000001,2123,2123,289492,18267.775390625,25682.828125,-1.2106150688065216,-1.0008299808269376,2.4999999999999467,-0.00364925986842106,0.9881013569078948,-0.17107833059210523,-2.80119243421053,0.6521124588815725,-0.011243318256576929,-4225.368421052632,2604.9210526315787,-1212.3684210526317,100.40911222759047,1.5435791015625,-171.01824308696547,3.49,2.4999999999999467,0.015447443181818203,0.9618252840909092,-0.24567205255681818,-1.6146573153409083,2.421985973011372,0.9904341264204541,-100.31818181818169,2375.590909090909,5205.681818181818,102.786338112571,-0.8641745827414695,133.14805464311075,3.55,2.4999999999999467,-0.066162109375,0.9241943359375,0.3897705078125,0.25939941406249833,-0.8544921875,0.6866455078124997,944.75,2662.0,-3555.25,67.32009887695312,4.041595458984375,2.3565673828125,3.56
1.084,2124,2124,289492,18272.943359375,25678.5,1.643785221525086,-3.7827696372392996,2.0000000000000018,-0.003700657894736843,0.9883326480263158,-0.1708470394736842,-2.8268914473684217,0.6071391858552622,0.0032123766447371693,-4225.894736842105,2604.7368421052633,-1212.8947368421052,100.4081003289474,1.5435791015625,-171.01723118832237,3.49,2.0000000000000018,0.015580610795454551,0.9621360085227273,-0.24556107954545453,-1.609108664772727,2.474698153409093,0.9876598011363635,-99.45454545454542,2375.2727272727275,5205.545454545455,102.78558904474431,-0.864923650568187,133.14930308948863,3.55,2.0000000000000018,-0.06611328125,0.92421875,0.38974609375,0.244140625,-0.8544921875,0.68359375,944.8,2663.2,-3554.8,67.31982421875,4.0418701171875,2.3565673828125,3.56
1.0845,2125,2125,289493,18276.189453125,25685.111328125,4.594070242467349,2.0641380556453495,1.5000000000000568,-0.0037520559210526268,0.9885639391447368,-0.1706157483552632,-2.8525904605263133,0.5621659128289516,0.017668071546051323,-4226.421052631579,2604.5526315789475,-1213.421052631579,100.40708843030427,1.5435791015625,-171.01621928967927,3.49,1.5000000000000568,0.015713778409090898,0.9624467329545454,-0.2454501065340909,-1.6035600142045459,2.527410333806814,0.9848854758522729,-98.59090909090916,2374.9545454545455,5205.409090909091,102.78483997691762,-0.865672718394876,133.1505515358665,3.55,1.5000000000000568,-0.066064453125,0.9242431640625,0.3897216796875,0.22888183593750172,-0.8544921875,0.6805419921875003,944.85,2664.4,-3554.35,67.31954956054688,4.042144775390625,2.3565673828125,3.56
1.085,2126,2126,289493,18278.712890625,25682.947265625,4.077426500420376,-1.7441517695960966,1.000000000000112,-0.0038034539473684103,0.9887952302631579,-0.17038445723684215,-2.8782894736842053,0.517192639802641,0.032123766447365365,-4226.9473684210525,2604.3684210526317,-1213.9473684210525,100.4060765316612,1.5435791015625,-171.01520739103617,3.49,1.000000000000112,0.015846946022727244,0.9627574573863635,-0.2453391335227273,-1.5980113636363646,2.5801225142045348,0.9821111505681823,-97.7272727272729,2374.6363636363635,5205.272727272727,102.78409090909088,-0.8664217862215935,133.1517999822443,3.55,1.000000000000112,-0.06601562500000001,0.924267578125,0.389697265625,0.2136230468750034,-0.8544921875,0.6774902343750007,944.9,2665.6,-3553.9,67.31927490234375,4.04241943359375,2.3565673828125,3.56
1.0855,2127,2127,289494,18273.666015625,25687.515625,-0.6407200563635298,0.1642765838271671,0.500000000000167,-0.0038548519736841935,0.9890265213815789,-0.17015316611842113,-2.903988486842097,0.4722193667763306,0.04657946134867952,-4227.473684210526,2604.184210526316,-1214.4736842105262,100.40506463301807,1.5435791015625,-171.0141954923931,3.49,0.500000000000167,0.015980113636363594,0.9630681818181818,-0.24522816051136367,-1.5924627130681837,2.6328346946022556,0.9793368252840918,-96.86363636363664,2374.318181818182,5205.136363636364,102.78334184126419,-0.8671708540482825,133.15304842862213,3.55,0.500000000000167,-0.06596679687500001,0.9242919921875,0.38967285156250003,0.1983642578125051,-0.8544921875,0.674438476562501,944.9499999999999,2666.7999999999997,-3553.4500000000003,67.31900024414062,4.042694091796875,2.3565673828125,3.56
1.086,2128,2128,289494,18274.505859375,25696.2890625,-0.49878395500352735,6.838043377024585,0.0,-0.00390625,0.9892578125,-0.169921875,-2.9296875,0.42724609375,0.06103515625,-4228.0,2604.0,-1215.0,100.404052734375,1.5435791015625,-171.01318359375,3.49,0.0,0.01611328125,0.96337890625,-0.2451171875,-1.5869140625,2.685546875,0.9765625,-96.0,2374.0,5205.0,102.7825927734375,-0.867919921875,133.154296875,3.55,0.0,-0.06591796875,0.92431640625,0.3896484375,0.18310546875,-0.8544921875,0.67138671875,945.0,2668.0,-3553.0,67.3187255859375,4.04296875,2.3565673828125,3.56
1.0865,2129,2129,289495,18274.986328125,25695.9296875,-0.5363448696519202,4.580292884184278,0.49999999999994493,-0.004223632812499965,0.9885742187500001,-0.17006835937499998,-2.975463867187495,0.39978027343750305,0.04882812500000135,-4228.35,2603.75,-1213.0000000000002,100.40130615234375,1.543853759765625,-171.01263427734375,3.49,0.49999999999994493,0.01603190104166667,0.9639485677083333,-0.24446614583333337,-1.5970865885416659,2.7058919270833317,0.986735026041666,-95.00000000000007,2375.1666666666665,5198.333333333334,102.78076171875,-0.8697509765625,133.15704345703125,3.55,0.49999999999994493,-0.065966796875,0.924267578125,0.3896728515625,0.1983642578124983,-0.8758544921874977,0.6652832031250007,944.0500000000001,2667.85,-3553.35,67.3187255859375,4.042694091796875,2.357940673828125,3.56
1.087,2130,2130,289495,18271.7421875,25695.568359375,-4.575883087960552,3.449603645282665,0.9999999999998899,-0.004541015624999929,0.9878906250000001,-0.17021484374999996,-3.02124023437499,0.3723144531250061,0.036621093750002706,-4228.7,2603.5,-1211.0000000000005,100.3985595703125,1.54412841796875,-171.0120849609375,3.49,0.9999999999998899,0.015950520833333346,0.9645182291666666,-0.24381510416666677,-1.607259114583332,2.726236979166664,0.9969075520833318,-94.00000000000014,2376.333333333333,5191.666666666668,102.7789306640625,-0.87158203125,133.1597900390625,3.55,0.9999999999998899,-0.066015625,0.92421875,0.389697265625,0.2136230468749966,-0.8972167968749952,0.6591796875000013,943.1000000000003,2667.7,-3553.7,67.3187255859375,4.04241943359375,2.35931396484375,3.56
1.0875,2131,2131,289496,18269.09765625,25699.537109375,-5.939489748876836,6.8755249668193175,1.4999999999998348,-0.004858398437499894,0.9872070312500002,-0.17036132812499996,-3.067016601562485,0.34484863281250916,0.024414062500004066,-4229.05,2603.25,-1209.0000000000007,100.39581298828125,1.544403076171875,-171.01153564453125,3.49,1.4999999999998348,0.015869140625000017,0.9650878906249999,-0.24316406250000014,-1.6174316406249978,2.7465820312499956,1.0070800781249978,-93.00000000000023,2377.4999999999995,5185.000000000002,102.777099609375,-0.8734130859375,133.16253662109375,3.55,1.4999999999998348,-0.06606445312499998,0.924169921875,0.3897216796875,0.22888183593749492,-0.9185791015624929,0.653076171875002,942.1500000000003,2667.55,-3554.0499999999997,67.3187255859375,4.042144775390625,2.360687255859375,3.56
1.088,2132,2132,289496,18270.900390625,25697.732421875,-3.5075085110808226,4.811018822406021,2.0000000000000018,-0.00517578125,0.9865234375,-0.1705078125,-3.11279296875,0.3173828125,0.01220703125,-4229.4,2603.0,-1207.0,100.39306640625,1.544677734375,-171.010986328125,3.49,0.9999999999998899,0.015787760416666654,0.9656575520833334,-0.24251302083333323,-1.627604166666668,2.766927083333336,1.017252604166668,-91.99999999999986,2378.666666666667,5178.333333333332,102.7752685546875,-0.875244140625,133.165283203125,3.55,2.0000000000000018,-0.06611328125,0.92412109375,0.38974609375,0.244140625,-0.93994140625,0.64697265625,941.2,2667.4,-3554.4,67.3187255859375,4.0418701171875,2.362060546875,3.56
1.0885,2133,2133,289497,18272.703125,25695.328125,-2.39297704567088,2.302209923531989,2.4999999999999467,-0.005493164062499965,0.9858398437500001,-0.17065429687499997,-3.158569335937495,0.28991699218750305,1.3530843112619095e-15,-4229.75,2602.75,-1205.0000000000002,100.39031982421875,1.544952392578125,-171.01043701171875,3.49,0.49999999999994493,0.01570638020833333,0.9662272135416667,-0.24186197916666663,-1.6377766927083341,2.7872721354166683,1.0274251302083341,-90.99999999999993,2379.8333333333335,5171.666666666666,102.7734375,-0.8770751953125,133.16802978515625,3.55,2.4999999999999467,-0.066162109375,0.924072265625,0.3897705078125,0.25939941406249833,-0.9613037109374977,0.6408691406250007,940.2500000000001,2667.25,-3554.75,67.3187255859375,4.041595458984375,2.363433837890625,3.56
1.089,2134,2134,289497,18271.982421875,25696.169921875,-3.344231127613304,2.394847092608188,2.9999999999998916,-0.00581054687499993,0.9851562500000002,-0.17080078124999998,-3.20434570312499,0.2624511718750061,-0.01220703124999728,-4230.1,2602.5,-1203.0000000000005,100.3875732421875,1.54522705078125,-171.0098876953125,3.49,0.0,0.015625,0.966796875,-0.2412109375,-1.64794921875,2.8076171875,1.03759765625,-90.0,2381.0,5165.0,102.7716064453125,-0.87890625,133.1707763671875,3.55,2.9999999999998916,-0.06621093749999998,0.9240234375,0.389794921875,0.2746582031249966,-0.9826660156249952,0.6347656250000013,939.3000000000002,2667.1,-3555.1,67.3187255859375,4.04132080078125,2.36480712890625,3.56
1.0895,2135,2135,289498,18270.66015625,25697.4921875,-4.236941354280418,3.0657491257124114,3.4999999999998366,-0.0061279296874998945,0.9844726562500002,-0.17094726562499996,-3.250122070312485,0.23498535156250916,-0.024414062499995934,-4230.45,2602.25,-1201.0000000000007,100.38482666015625,1.545501708984375,-171.00933837890625,3.49,0.49999999999994493,0.015311104910714326,0.9671456473214285,-0.24110630580357145,-1.6130719866071472,2.79453822544643,1.046316964285713,-90.07142857142857,2381.0,5163.785714285715,102.77121407645086,-0.8792986188616112,133.17156110491072,3.55,3.4999999999998366,-0.06625976562499998,0.923974609375,0.3898193359375,0.2899169921874949,-1.004028320312493,0.628662109375002,938.3500000000004,2666.9500000000003,-3555.45,67.3187255859375,4.041046142578125,2.366180419921875,3.56
1.09,2136,2136,289498,18274.146484375,25699.173828125,-1.054517366873978,3.1129118105383444,4.0000000000000036,-0.0064453125,0.9837890625,-0.17109375,-3.2958984375,0.20751953125,-0.03662109375,-4230.8,2602.0,-1199.0,100.382080078125,1.5457763671875,-171.0087890625,3.49,1.000000000000112,0.014997209821428511,0.9674944196428572,-0.24100167410714285,-1.5781947544642791,2.7814592633928545,1.0550362723214302,-90.14285714285715,2381.0,5162.571428571428,102.77082170758928,-0.8796909877232224,133.17234584263394,3.55,4.0000000000000036,-0.06630859375,0.92392578125,0.38984375,0.30517578125,-1.025390625,0.62255859375,937.4,2666.8,-3555.8,67.3187255859375,4.040771484375,2.3675537109375,3.56
1.0905,2137,2137,289499,18272.703125,25700.255859375,-3.216771231231821,1.2490269300691028,4.4999999999999485,-0.006762695312499964,0.98310546875,-0.171240234375,-3.341674804687495,0.18005371093750305,-0.048828124999998654,-4231.15,2601.75,-1197.0000000000002,100.37933349609375,1.546051025390625,-171.00823974609375,3.49,1.5000000000000568,0.014683314732142837,0.9678431919642857,-0.24089704241071427,-1.5433175223214264,2.7683803013392847,1.0637555803571435,-90.21428571428572,2381.0,5161.357142857143,102.7704293387277,-0.8800833565848336,133.1731305803571,3.55,4.4999999999999485,-0.06635742187499999,0.923876953125,0.3898681640625,0.32043457031249833,-1.0467529296874976,0.6164550781250007,936.4500000000002,2666.65,-3556.15,67.3187255859375,4.040496826171875,2.368927001953125,3.56
1.091,2138,2138,289499,18275.107421875,25707.228515625,-1.575534086887044,2.1558979221223327,4.999999999999893,-0.00708007812499993,0.9824218750000001,-0.17138671874999997,-3.38745117187499,0.1525878906250061,-0.061035156249997294,-4231.5,2601.5,-1195.0000000000005,100.3765869140625,1.54632568359375,-171.0076904296875,3.49,2.0000000000000018,0.014369419642857163,0.9681919642857143,-0.24079241071428573,-1.5084402901785736,2.7553013392857153,1.0724748883928565,-90.28571428571428,2381.0,5160.142857142857,102.77003696986606,-0.8804757254464164,133.1739153180804,3.55,4.999999999999893,-0.06640624999999999,0.923828125,0.389892578125,0.3356933593749966,-1.0681152343749953,0.6103515625000013,935.5000000000002,2666.5,-3556.5,67.3187255859375,4.04022216796875,2.37030029296875,3.56
1.0915,2139,2139,289500,18274.8671875,25710.353515625,-2.3855997965537052,1.7093713507518995,4.5000000000001705,-0.007397460937499894,0.9817382812500002,-0.17153320312499995,-3.433227539062485,0.1251220703125091,-0.07324218749999595,-4231.849999999999,2601.25,-1193.0000000000007,100.37384033203125,1.546600341796875,-171.00714111328125,3.49,2.4999999999999467,0.014055524553571489,0.9685407366071428,-0.24068777901785715,-1.4735630580357209,2.7422223772321455,1.0811941964285698,-90.35714285714285,2381.0,5158.928571428572,102.76964460100447,-0.8808680943080276,133.17470005580356,3.55,4.5000000000001705,-0.06645507812499998,0.923779296875,0.3899169921875,0.3509521484374949,-1.089477539062493,0.604248046875002,934.5500000000003,2666.35,-3556.85,67.3187255859375,4.039947509765625,2.371673583984375,3.56
1.092,2140,2140,289500,18276.068359375,25710.353515625,-0.9972457544584756,0.5336113314236082,4.0000000000000036,-0.00771484375,0.9810546875,-0.1716796875,-3.47900390625,0.09765625,-0.08544921875,-4232.2,2601.0,-1191.0,100.37109375,1.546875,-171.006591796875,3.49,3.0000000000001137,0.013741629464285674,0.9688895089285715,-0.24058314732142855,-1.4386858258928528,2.72914341517857,1.089913504464287,-90.42857142857143,2381.0,5157.714285714285,102.76925223214289,-0.8812604631696388,133.17548479352678,3.55,4.0000000000000036,-0.06650390625,0.92373046875,0.38994140625,0.3662109375,-1.11083984375,0.59814453125,933.6,2666.2,-3557.2,67.3187255859375,4.0396728515625,2.373046875,3.56
1.0925,2141,2141,289501,18275.46875,25711.076171875,-2.5516844708782633,-0.30298275323868396,3.5000000000000586,-0.008032226562499965,0.9803710937500001,-0.171826171875,-3.5247802734374947,0.07019042968750305,-0.09765624999999864,-4232.55,2600.75,-1189.0000000000002,100.36834716796875,1.547149658203125,-171.00604248046875,3.49,3.5000000000000586,0.013427734375,0.96923828125,-0.240478515625,-1.40380859375,2.716064453125,1.0986328125,-90.5,2381.0,5156.5,102.76885986328125,-0.88165283203125,133.17626953125,3.55,3.5000000000000586,-0.06655273437499999,0.923681640625,0.3899658203125,0.38146972656249833,-1.1322021484374976,0.5920410156250007,932.6500000000001,2666.05,-3557.55,67.3187255859375,4.039398193359375,2.374420166015625,3.56
1.093,2142,2142,289501,18276.310546875,25711.435546875,-2.6046302214334407,-1.2027235875816693,3.0000000000001137,-0.00834960937499993,0.9796875000000002,-0.17197265624999997,-3.57055664062499,0.042724609375006106,-0.10986328124999728,-4232.9,2600.5,-1187.0000000000005,100.3656005859375,1.54742431640625,-171.0054931640625,3.49,3.0000000000001137,0.013113839285714326,0.9695870535714285,-0.24037388392857145,-1.3689313616071472,2.70298549107143,1.107352120535713,-90.57142857142857,2381.0,5155.285714285715,102.76846749441961,-0.8820452008928612,133.17705426897322,3.55,3.0000000000001137,-0.06660156249999999,0.9236328125,0.389990234375,0.39672851562499656,-1.1535644531249951,0.5859375000000013,931.7000000000002,2665.9,-3557.9,67.3187255859375,4.03912353515625,2.37579345703125,3.56
1.0935,2143,2143,289502,18272.703125,25721.412109375,-5.950231697110782,6.063505756247452,2.5000000000001688,-0.008666992187499894,0.9790039062500002,-0.17211914062499994,-3.616333007812485,0.01525878906250916,-0.12207031249999595,-4233.25,2600.25,-1185.0000000000007,100.36285400390625,1.547698974609375,-171.00494384765625,3.49,2.5000000000001688,0.012799944196428652,0.9699358258928571,-0.24026925223214288,-1.3340541294642945,2.6899065290178603,1.1160714285714264,-90.64285714285712,2381.0,5154.071428571428,102.76807512555803,-0.8824375697544724,133.17783900669644,3.55,2.5000000000001688,-0.06665039062499999,0.923583984375,0.3900146484375,0.4119873046874949,-1.174926757812493,0.579833984375002,930.7500000000003,2665.75,-3558.25,67.3187255859375,4.038848876953125,2.377166748046875,3.56
1.094,2144,2144,289502,18271.501953125,25731.267578125,-6.051900651043208,12.082470910852862,2.0000000000000018,-0.008984375,0.9783203125,-0.172265625,-3.662109375,-0.01220703125,-0.13427734375,-4233.6,2600.0,-1183.0,100.360107421875,1.5479736328125,-171.00439453125,3.49,2.0000000000000018,0.012486049107142837,0.9702845982142857,-0.24016462053571427,-1.2991768973214264,2.6768275669642847,1.1247907366071435,-90.71428571428572,2381.0,5152.857142857143,102.76768275669644,-0.8828299386160836,133.1786237444196,3.55,2.0000000000000018,-0.06669921875,0.92353515625,0.3900390625,0.42724609375,-1.1962890625,0.57373046875,929.8,2665.6,-3558.6,67.3187255859375,4.03857421875,2.3785400390625,3.56
1.0945,2145,2145,289503,18275.107421875,25738.359375,-3.6170123271675694,14.194932943470771,1.5000000000000568,-0.009301757812499964,0.97763671875,-0.17241210937499998,-3.7078857421874947,-0.03967285156249695,-0.14648437499999864,-4233.95,2599.75,-1181.0000000000002,100.35736083984375,1.548248291015625,-171.00384521484375,3.49,1.5000000000000568,0.012172154017857163,0.9706333705357143,-0.24005998883928573,-1.2642996651785736,2.6637486049107153,1.1335100446428565,-90.78571428571428,2381.0,5151.642857142857,102.7672903878348,-0.8832223074776664,133.1794084821429,3.55,1.5000000000000568,-0.066748046875,0.923486328125,0.3900634765625,0.4425048828124983,-1.2176513671874976,0.5676269531250007,928.8500000000001,2665.45,-3558.95,67.3187255859375,4.038299560546875,2.379913330078125,3.56
