time_s,emg_record_index,emg_sequence,emg_tick_ms,ch1_raw_uV,ch2_raw_uV,ch1_filtered_uV,ch2_filtered_uV,imu0_source_offset_ms,imu0_accel_x_g,imu0_accel_y_g,imu0_accel_z_g,imu0_gyro_x_dps,imu0_gyro_y_dps,imu0_gyro_z_dps,imu0_mag_x_raw,imu0_mag_y_raw,imu0_mag_z_raw,imu0_angle_x_deg,imu0_angle_y_deg,imu0_angle_z_deg,imu0_battery_voltage,imu1_source_offset_ms,imu1_accel_x_g,imu1_accel_y_g,imu1_accel_z_g,imu1_gyro_x_dps,imu1_gyro_y_dps,imu1_gyro_z_dps,imu1_mag_x_raw,imu1_mag_y_raw,imu1_mag_z_raw,imu1_angle_x_deg,imu1_angle_y_deg,imu1_angle_z_deg,imu1_battery_voltage,imu2_source_offset_ms,imu2_accel_x_g,imu2_accel_y_g,imu2_accel_z_g,imu2_gyro_x_dps,imu2_gyro_y_dps,imu2_gyro_z_dps,imu2_mag_x_raw,imu2_mag_y_raw,imu2_mag_z_raw,imu2_angle_x_deg,imu2_angle_y_deg,imu2_angle_z_deg,imu2_battery_voltage
1.022,2000,2000,47175,9965.7490234375,19199.9453125,8.77249090349594,-11.244998682614272,4.0000000000000036,0.002197265625,0.984619140625,-0.15283203125,0.0457763671875,0.48828125,0.48828125,-4521.25,-2084.0,119.0,88.14743041992188,4.88616943359375,-113.67141723632812,3.49,10.000000000000009,0.004917689732142857,0.97314453125,-0.19911411830357142,1.8964494977678572,-0.5972726004464286,-0.7411411830357143,-1008.7142857142857,-1430.142857142857,6825.428571428572,102.54991803850447,-1.4921787806919724,-169.13844517299108,3.55,9.000000000000119,0.00146484375,0.9384068080357143,0.3447265625,-1.944405691964286,-0.09591238839285696,1.377650669642857,2388.8571428571427,-247.14285714285717,-4726.285714285715,70.4498291015625,-0.186767578125,30.727190290178584,3.57
1.0225,2001,2001,47175,9961.1806640625,19199.103515625,4.580814044785525,-10.372080704353138,4.4999999999999485,0.0022277832031249965,0.984588623046875,-0.15283203125,0.05912780761718603,0.5111694335937474,0.48065185546875083,-4521.03125,-2084.0,118.37500000000007,88.14725875854492,4.886512756347656,-113.67158889770508,3.49,10.499999999999954,0.00518798828124997,0.9732666015625,-0.19915771484375,1.8997192382812496,-0.6027221679687493,-0.7476806640624993,-1008.5,-1430.25,6826.0,102.54981994628906,-1.4920806884765625,-169.21005249023438,3.55,9.500000000000064,0.00146484375,0.9384300595238095,0.3447265625,-1.9473121279761905,-0.09445917038690475,1.3761974516369047,2388.7380952380954,-247.26190476190476,-4726.857142857143,70.4498291015625,-0.186767578125,30.726797921316972,3.57
1.023,2002,2002,47176,9958.4169921875,19201.388671875,2.00722332837495,-3.8424618758624107,4.999999999999893,0.002258300781249993,0.98455810546875,-0.15283203125,0.07247924804687203,0.5340576171874949,0.47302246093750167,-4520.8125,-2084.0,117.75000000000014,88.14708709716797,4.8868560791015625,-113.67176055908203,3.49,10.999999999999899,0.005458286830357083,0.973388671875,-0.19920131138392858,1.9029889787946421,-0.6081717354910702,-0.7542201450892843,-1008.2857142857143,-1430.357142857143,6826.571428571428,102.54972185407365,-1.4919825962611526,-169.28165980747767,3.55,10.000000000000009,0.00146484375,0.9384533110119048,0.3447265625,-1.950218563988095,-0.09300595238095254,1.3747442336309526,2388.6190476190477,-247.38095238095238,-4727.428571428572,70.4498291015625,-0.186767578125,30.72640555245536,3.57
1.0235,2003,2003,47176,9958.537109375,19203.912109375,1.4453604793756316,2.314121290501717,5.50000000000006,0.0022888183593750035,0.984527587890625,-0.15283203125,0.08583068847656397,0.5569458007812524,0.46539306640624917,-4520.59375,-2084.0,117.12499999999993,88.14691543579102,4.887199401855469,-113.67193222045898,3.49,11.500000000000066,0.0057285853794643155,0.9735107421875,-0.19924490792410715,1.906258719308036,-0.6136213030133935,-0.7607596261160722,-1008.0714285714286,-1430.4642857142858,6827.142857142857,102.54962376185824,-1.491884504045771,-169.353267124721,3.55,10.499999999999954,0.00146484375,0.9384765625,0.3447265625,-1.9531250000000007,-0.09155273437499967,1.3732910156249998,2388.5,-247.50000000000003,-4728.0,70.4498291015625,-0.186767578125,30.72601318359375,3.57
1.024,2004,2004,47177,9956.8544921875,19203.671875,0.27411101670357496,4.368812908625502,6.000000000000005,0.0023193359375,0.9844970703125,-0.15283203125,0.09918212890625,0.579833984375,0.457763671875,-4520.375,-2084.0,116.5,88.14674377441406,4.887542724609375,-113.67210388183594,3.49,12.00000000000001,0.005998883928571428,0.9736328125,-0.19928850446428573,1.9095284598214286,-0.6190708705357143,-0.7672991071428571,-1007.8571428571429,-1430.5714285714287,6827.714285714285,102.54952566964289,-1.4917864118303612,-169.42487444196428,3.55,10.000000000000009,0.00146484375,0.9384998139880952,0.3447265625,-1.956031436011905,-0.09009951636904748,1.3718377976190474,2388.3809523809523,-247.61904761904762,-4728.571428571428,70.4498291015625,-0.186767578125,30.72562081473214,3.57
1.0245,2005,2005,47177,9955.4111328125,19206.91796875,-0.7689449388006242,5.827031854759289,6.49999999999995,0.0023498535156249965,0.984466552734375,-0.15283203125,0.11253356933593603,0.6027221679687476,0.45013427734375083,-4520.15625,-2084.0,115.87500000000007,88.14657211303711,4.887886047363281,-113.67227554321289,3.49,12.499999999999956,0.006269182477678542,0.9737548828125,-0.19933210100446427,1.9127982003348212,-0.6245204380580351,-0.7738385881696421,-1007.6428571428571,-1430.6785714285713,6828.285714285715,102.54942757742742,-1.4916883196149513,-169.49648175920757,3.55,9.500000000000064,0.00146484375,0.9385230654761905,0.3447265625,-1.9589378720238095,-0.08864629836309526,1.3703845796130953,2388.2619047619046,-247.73809523809524,-4729.142857142857,70.4498291015625,-0.186767578125,30.725228445870528,3.57
1.025,2006,2006,47178,9957.455078125,19206.677734375,1.372316916726387,4.5926142516340125,6.999999999999895,0.002380371093749993,0.98443603515625,-0.15283203125,0.12588500976562203,0.6256103515624949,0.44250488281250167,-4519.9375,-2084.0,115.25000000000014,88.14640045166016,4.8882293701171875,-113.67244720458984,3.49,12.9999999999999,0.006539481026785654,0.973876953125,-0.19937569754464285,1.9160679408482135,-0.6299700055803559,-0.780378069196427,-1007.4285714285714,-1430.7857142857142,6828.857142857143,102.54932948521207,-1.4915902273995414,-169.5680890764509,3.55,9.000000000000119,0.00146484375,0.9385463169642857,0.3447265625,-1.961844308035714,-0.08719308035714304,1.368931361607143,2388.1428571428573,-247.85714285714283,-4729.714285714285,70.4498291015625,-0.186767578125,30.724836077008916,3.57
1.0255,2007,2007,47178,9957.5751953125,19206.91796875,0.8657533039913732,5.048707731763888,7.500000000000062,0.0024108886718750035,0.984405517578125,-0.15283203125,0.13923645019531397,0.6484985351562524,0.43487548828124917,-4519.71875,-2084.0,114.62499999999993,88.1462287902832,4.888572692871094,-113.6726188659668,3.49,13.500000000000068,0.006809779575892887,0.9739990234375,-0.19941929408482142,1.9193376813616074,-0.6354195731026792,-0.7869175502232151,-1007.2142857142857,-1430.892857142857,6829.428571428572,102.54923139299666,-1.49149213518416,-169.6396963936942,3.55,8.499999999999952,0.00146484375,0.9385695684523809,0.3447265625,-1.9647507440476195,-0.08573986235119019,1.3674781436011902,2388.0238095238096,-247.9761904761905,-4730.285714285715,70.4498291015625,-0.186767578125,30.724443708147334,3.57
1.026,2008,2008,47179,9954.810546875,19205.353515625,-0.4111081875848912,4.798255060414764,8.000000000000007,0.00244140625,0.984375,-0.15283203125,0.152587890625,0.67138671875,0.42724609375,-4519.5,-2084.0,114.0,88.14605712890625,4.888916015625,-113.67279052734375,3.49,14.000000000000012,0.007080078125,0.97412109375,-0.199462890625,1.922607421875,-0.640869140625,-0.79345703125,-1007.0,-1431.0,6830.0,102.54913330078125,-1.49139404296875,-169.7113037109375,3.55,8.000000000000007,0.00146484375,0.9385928199404762,0.3447265625,-1.9676571800595242,-0.08428664434523797,1.366024925595238,2387.904761904762,-248.0952380952381,-4730.857142857143,70.4498291015625,-0.186767578125,30.724051339285722,3.57
1.0265,2009,2009,47179,9954.5703125,19204.994140625,0.12194248799525553,2.850614609857575,7.500000000000062,0.0024719238281249965,0.984344482421875,-0.15283203125,0.16593933105468603,0.6942749023437476,0.41961669921875083,-4519.28125,-2084.0,113.37500000000007,88.1458854675293,4.889259338378906,-113.6729621887207,3.49,13.500000000000068,0.007350376674107113,0.9742431640625,-0.19950648716517858,1.9258771623883926,-0.6463187081473208,-0.799996512276785,-1006.7857142857143,-1431.107142857143,6830.571428571428,102.54903520856584,-1.49129595075334,-169.7829110281808,3.55,7.500000000000062,0.00146484375,0.9386160714285714,0.3447265625,-1.9705636160714284,-0.08283342633928575,1.3645717075892858,2387.785714285714,-248.21428571428572,-4731.428571428572,70.4498291015625,-0.186767578125,30.72365897042411,3.57
1.027,2010,2010,47180,9958.77734375,19202.58984375,5.272625569698117,0.1542234354568115,7.000000000000117,0.002502441406249993,0.98431396484375,-0.15283203125,0.17929077148437206,0.7171630859374949,0.41198730468750167,-4519.0625,-2084.0,112.75000000000014,88.14571380615234,4.8896026611328125,-113.67313385009766,3.49,13.000000000000123,0.007620675223214225,0.974365234375,-0.19955008370535712,1.929146902901785,-0.6517682756696417,-0.80653599330357,-1006.5714285714287,-1431.2142857142858,6831.142857142857,102.54893711635043,-1.4911978585379586,-169.85451834542408,3.55,7.000000000000117,0.00146484375,0.9386393229166666,0.3447265625,-1.9734700520833328,-0.08138020833333354,1.3631184895833335,2387.6666666666665,-248.33333333333331,-4732.0,70.4498291015625,-0.186767578125,30.7232666015625,3.57
1.0275,2011,2011,47180,9958.537109375,19198.984375,4.9345102838769925,-2.8005789847089244,6.49999999999995,0.0025329589843750035,0.984283447265625,-0.15283203125,0.19264221191406394,0.7400512695312524,0.40435791015624917,-4518.84375,-2084.0,112.12499999999993,88.14554214477539,4.889945983886719,-113.67330551147461,3.49,12.499999999999956,0.00789097377232146,0.9744873046875,-0.19959368024553573,1.9324166434151788,-0.6572178431919649,-0.8130754743303579,-1006.3571428571429,-1431.3214285714287,6831.714285714286,102.54883902413508,-1.4910997663225487,-169.92612566266743,3.55,6.49999999999995,0.00146484375,0.9386625744047619,0.3447265625,-1.9763764880952386,-0.07992699032738068,1.3616652715773807,2387.547619047619,-248.45238095238096,-4732.571428571428,70.4498291015625,-0.186767578125,30.72287423270089,3.57
1.028,2012,2012,47181,9956.9736328125,19195.376953125,3.7106037453409204,-6.322460115404258,6.000000000000005,0.0025634765625,0.9842529296875,-0.15283203125,0.20599365234375,0.762939453125,0.396728515625,-4518.625,-2084.0,111.5,88.14537048339844,4.890289306640625,-113.67347717285156,3.49,12.00000000000001,0.00816127232142857,0.974609375,-0.19963727678571427,1.9356863839285714,-0.6626674107142857,-0.8196149553571428,-1006.1428571428571,-1431.4285714285713,6832.285714285715,102.54874093191961,-1.4910016741071388,-169.99773297991072,3.55,6.000000000000005,0.00146484375,0.9386858258928571,0.3447265625,-1.979282924107143,-0.07847377232142849,1.3602120535714284,2387.4285714285716,-248.57142857142858,-4733.142857142857,70.4498291015625,-0.186767578125,30.722481863839278,3.57
1.0285,2013,2013,47181,9957.8154296875,19198.623046875,4.213007241118012,-1.9104719065947495,5.50000000000006,0.0025939941406249965,0.984222412109375,-0.15283203125,0.21934509277343606,0.7858276367187476,0.38909912109375083,-4518.40625,-2084.0,110.87500000000007,88.14519882202148,4.890632629394531,-113.67364883422852,3.49,11.500000000000066,0.008431570870535685,0.9747314453125,-0.19968087332589285,1.938956124441964,-0.6681169782366065,-0.8261544363839278,-1005.9285714285714,-1431.5357142857142,6832.857142857143,102.54864283970426,-1.490903581891729,-170.069340297154,3.55,5.50000000000006,0.00146484375,0.9387090773809523,0.3447265625,-1.9821893601190474,-0.07702055431547628,1.3587588355654763,2387.309523809524,-248.69047619047618,-4733.714285714285,70.4498291015625,-0.186767578125,30.722089494977666,3.57
1.029,2014,2014,47182,9955.7724609375,19199.826171875,1.769985364458384,1.8278503410418296,5.0000000000001155,0.002624511718749993,0.98419189453125,-0.15283203125,0.23269653320312206,0.808715820312495,0.38146972656250167,-4518.1875,-2084.0,110.25000000000014,88.14502716064453,4.8909759521484375,-113.67382049560547,3.49,11.00000000000012,0.008701869419642797,0.974853515625,-0.19972446986607142,1.9422258649553563,-0.6735665457589274,-0.8326939174107129,-1005.7142857142858,-1431.642857142857,6833.428571428572,102.54854474748885,-1.4908054896763474,-170.1409476143973,3.55,5.0000000000001155,0.00146484375,0.9387323288690476,0.3447265625,-1.9850957961309519,-0.07556733630952406,1.3573056175595242,2387.190476190476,-248.8095238095238,-4734.285714285714,70.4498291015625,-0.186767578125,30.721697126116084,3.57
1.0295,2015,2015,47182,9953.248046875,19197.541015625,-0.35160606704659925,2.7024428214638423,4.4999999999999485,0.0026550292968750035,0.984161376953125,-0.15283203125,0.24604797363281394,0.8316040039062526,0.37384033203124917,-4517.96875,-2084.0,109.62499999999993,88.14485549926758,4.891319274902344,-113.67399215698242,3.49,10.499999999999954,0.00897216796875003,0.9749755859375,-0.19976806640625,1.9454956054687504,-0.6790161132812507,-0.8392333984375007,-1005.5,-1431.75,6834.0,102.54844665527344,-1.4907073974609375,-170.21255493164062,3.55,4.4999999999999485,0.00146484375,0.9387555803571429,0.3447265625,-1.9880022321428577,-0.0741141183035712,1.3558523995535712,2387.0714285714284,-248.92857142857144,-4734.857142857143,70.4498291015625,-0.186767578125,30.721304757254472,3.57
1.03,2016,2016,47183,9955.05078125,19199.46484375,1.9409547584036466,5.737331784088303,4.0000000000000036,0.002685546875,0.984130859375,-0.15283203125,0.2593994140625,0.8544921875,0.3662109375,-4517.75,-2084.0,109.0,88.14468383789062,4.89166259765625,-113.67416381835938,3.49,10.000000000000009,0.009242466517857144,0.97509765625,-0.19981166294642858,1.9487653459821428,-0.6844656808035714,-0.8457728794642857,-1005.2857142857143,-1431.857142857143,6834.571428571428,102.54834856305803,-1.4906093052455276,-170.28416224888392,3.55,4.0000000000000036,0.00146484375,0.9387788318452381,0.3447265625,-1.990908668154762,-0.07266090029761899,1.354399181547619,2386.9523809523807,-249.04761904761907,-4735.428571428572,70.4498291015625,-0.186767578125,30.72091238839286,3.57
1.0305,2017,2017,47183,9953.48828125,19200.787109375,1.1937004040628039,6.519466742335179,3.5000000000000586,0.0027160644531249965,0.984100341796875,-0.15283203125,0.27275085449218606,0.8773803710937474,0.35858154296875083,-4517.53125,-2084.0,108.37500000000007,88.14451217651367,4.892005920410156,-113.67433547973633,3.49,9.500000000000064,0.009512765066964255,0.9752197265625,-0.19985525948660715,1.9520350864955354,-0.6899152483258922,-0.8523123604910707,-1005.0714285714286,-1431.9642857142858,6835.142857142857,102.54825047084262,-1.490511213030146,-170.35576956612724,3.55,3.5000000000000586,0.00146484375,0.9388020833333334,0.3447265625,-1.9938151041666665,-0.07120768229166677,1.3529459635416667,2386.8333333333335,-249.16666666666666,-4736.0,70.4498291015625,-0.186767578125,30.72052001953125,3.57
1.031,2018,2018,47184,9957.5751953125,19202.228515625,4.692469793325754,7.477684237133916,3.0000000000001137,0.002746582031249993,0.98406982421875,-0.15283203125,0.28610229492187206,0.900268554687495,0.35095214843750167,-4517.3125,-2084.0,107.75000000000014,88.14434051513672,4.8923492431640625,-113.67450714111328,3.49,9.000000000000119,0.009783063616071369,0.975341796875,-0.1998988560267857,1.955304827008928,-0.6953648158482131,-0.8588518415178557,-1004.8571428571429,-1432.0714285714284,6835.714285714285,102.54815237862726,-1.4904131208147362,-170.42737688337053,3.55,3.0000000000001137,0.00146484375,0.9388253348214286,0.3447265625,-1.996721540178571,-0.06975446428571455,1.3514927455357146,2386.714285714286,-249.28571428571428,-4736.571428571428,70.4498291015625,-0.186767578125,30.72012765066964,3.57
1.0315,2019,2019,47184,9957.21484375,19203.552734375,3.3817483462055007,8.800315693767699,2.4999999999999467,0.0027770996093750035,0.984039306640625,-0.15283203125,0.29945373535156394,0.9231567382812526,0.34332275390624917,-4517.09375,-2084.0,107.12499999999993,88.14416885375977,4.892692565917969,-113.67467880249023,3.49,8.499999999999952,0.010053362165178601,0.9754638671875,-0.1999424525669643,1.9585745675223218,-0.7008143833705363,-0.8653913225446436,-1004.6428571428571,-1432.1785714285713,6836.285714285715,102.5480542864118,-1.4903150285993263,-170.49898420061385,3.55,2.4999999999999467,0.00146484375,0.9388485863095238,0.3447265625,-1.9996279761904765,-0.0683012462797617,1.3500395275297616,2386.595238095238,-249.40476190476193,-4737.142857142857,70.4498291015625,-0.186767578125,30.719735281808028,3.57
1.032,2020,2020,47185,9956.0126953125,19205.595703125,1.1682236985279715,11.657034944435361,2.0000000000000018,0.0028076171875,0.9840087890625,-0.15283203125,0.31280517578125,0.946044921875,0.335693359375,-4516.875,-2084.0,106.5,88.14399719238281,4.893035888671875,-113.67485046386719,3.49,8.000000000000007,0.010323660714285714,0.9755859375,-0.19998604910714285,1.9618443080357144,-0.7062639508928572,-0.8719308035714286,-1004.4285714285714,-1432.2857142857142,6836.857142857143,102.54795619419644,-1.4902169363839164,-170.57059151785714,3.55,2.0000000000000018,0.00146484375,0.9388718377976191,0.3447265625,-2.002534412202381,-0.0668480282738095,1.3485863095238095,2386.4761904761904,-249.52380952380952,-4737.714285714285,70.4498291015625,-0.186767578125,30.719342912946416,3.57
1.0325,2021,2021,47185,9957.935546875,19207.27734375,2.7075291553398304,10.270492698133506,1.5000000000000568,0.0028381347656249965,0.983978271484375,-0.15283203125,0.32615661621093606,0.9689331054687474,0.32806396484375083,-4516.65625,-2084.0,105.87500000000007,88.14382553100586,4.893379211425781,-113.67502212524414,3.49,7.500000000000062,0.010593959263392828,0.9757080078125,-0.20002964564732142,1.9651140485491068,-0.7117135184151779,-0.8784702845982135,-1004.2142857142858,-1432.392857142857,6837.428571428572,102.54785810198103,-1.490118844168535,-170.64219883510043,3.55,1.5000000000000568,0.00146484375,0.9388950892857143,0.3447265625,-2.0054408482142856,-0.06539481026785729,1.3471330915178572,2386.3571428571427,-249.64285714285714,-4738.285714285715,70.4498291015625,-0.186767578125,30.718950544084834,3.57
1.033,2022,2022,47186,9958.0556640625,19209.322265625,1.6526317428812363,8.702840290275375,1.000000000000112,0.002868652343749993,0.98394775390625,-0.15283203125,0.33950805664062206,0.991821289062495,0.32043457031250167,-4516.4375,-2084.0,105.25000000000014,88.1436538696289,4.8937225341796875,-113.6751937866211,3.49,7.000000000000117,0.01086425781249994,0.975830078125,-0.2000732421875,1.9683837890624993,-0.7171630859374988,-0.8850097656249986,-1004.0,-1432.5,6838.0,102.54776000976562,-1.490020751953125,-170.71380615234372,3.55,1.000000000000112,0.00146484375,0.9389183407738095,0.3447265625,-2.00834728422619,-0.06394159226190507,1.345679873511905,2386.2380952380954,-249.76190476190473,-4738.857142857143,70.4498291015625,-0.186767578125,30.718558175223222,3.57
1.0335,2023,2023,47186,9958.4169921875,19213.048828125,2.528489532435453,10.646399694805424,0.49999999999994493,0.0028991699218750035,0.983917236328125,-0.15283203125,0.35285949707031394,1.0147094726562527,0.31280517578124917,-4516.21875,-2084.0,104.62499999999993,88.14348220825195,4.894065856933594,-113.67536544799805,3.49,6.49999999999995,0.011134556361607172,0.9759521484375,-0.20011683872767858,1.9716535295758932,-0.7226126534598221,-0.8915492466517865,-1003.7857142857142,-1432.607142857143,6838.571428571428,102.54766191755022,-1.489922659737715,-170.78541346958707,3.55,0.49999999999994493,0.00146484375,0.9389415922619048,0.3447265625,-2.011253720238096,-0.06248837425595221,1.344226655505952,2386.1190476190477,-249.8809523809524,-4739.428571428572,70.4498291015625,-0.186767578125,30.71816580636161,3.57
1.034,2024,2024,47187,9953.9697265625,19212.205078125,-2.4737712119046296,7.086232666513011,0.0,0.0029296875,0.98388671875,-0.15283203125,0.3662109375,1.03759765625,0.30517578125,-4516.0,-2084.0,104.0,88.143310546875,4.8944091796875,-113.675537109375,3.49,6.000000000000005,0.011404854910714286,0.97607421875,-0.20016043526785715,1.9749232700892856,-0.7280622209821428,-0.8980887276785714,-1003.5714285714286,-1432.7142857142858,6839.142857142857,102.5475638253348,-1.4898245675223336,-170.85702078683036,3.55,0.0,0.00146484375,0.93896484375,0.3447265625,-2.01416015625,-0.06103515625,1.3427734375,2386.0,-250.0,-4740.0,70.4498291015625,-0.186767578125,30.7177734375,3.57
1.0345,2025,2025,47187,9953.48828125,19211.00390625,-1.5068054985936794,2.760064544311735,0.49999999999994493,0.0025390625000000348,0.9836914062500001,-0.152734375,0.42724609374999456,1.1108398437499936,0.31127929687499944,-4519.4,-2083.7,101.7000000000002,88.14166259765625,4.89715576171875,-113.67498779296875,3.49,5.50000000000006,0.011675153459821399,0.9761962890625,-0.2002040318080357,1.9781930106026782,-0.7335117885044637,-0.9046282087053564,-1003.3571428571429,-1432.8214285714287,6839.714285714285,102.54746573311945,-1.4897264753069237,-170.92862810407365,3.55,0.49999999999994493,0.0013950892857142925,0.9390694754464286,0.3448660714285714,-2.035958426339284,-0.04795619419642982,1.3296944754464297,2384.2857142857147,-252.28571428571408,-4733.642857142858,70.44904436383928,-0.186767578125,30.716988699776778,3.57
1.035,2026,2026,47188,9956.8544921875,19211.365234375,1.658990340101241,3.6735028583413243,0.9999999999998899,0.0021484375000000696,0.98349609375,-0.15263671875,0.4882812499999892,1.1840820312499871,0.3173828124999989,-4522.799999999999,-2083.4,99.4000000000004,88.1400146484375,4.89990234375,-113.6744384765625,3.49,5.0000000000001155,0.011945452008928513,0.976318359375,-0.20024762834821427,1.9814627511160707,-0.7389613560267845,-0.9111676897321415,-1003.1428571428572,-1432.9285714285713,6840.285714285714,102.54736764090399,-1.4896283830915138,-171.00023542131694,3.55,0.9999999999998899,0.0013253348214285847,0.9391741071428571,0.34500558035714285,-2.057756696428567,-0.034877232142859635,1.3166155133928596,2382.571428571429,-254.57142857142813,-4727.285714285716,70.44825962611606,-0.186767578125,30.716203962053584,3.57
1.0355,2027,2027,47188,9953.248046875,19206.31640625,-2.295777250835023,2.7320962005814398,1.5000000000000568,0.0017578124999999307,0.98330078125,-0.1525390625,0.5493164062500109,1.2573242187500129,0.3234863281250011,-4526.200000000001,-2083.1,97.0999999999996,88.13836669921875,4.90264892578125,-113.67388916015625,3.49,4.4999999999999485,0.012215750558035745,0.9764404296875,-0.20029122488839285,1.9847324916294646,-0.7444109235491078,-0.9177071707589293,-1002.9285714285714,-1433.0357142857142,6840.857142857143,102.54726954868863,-1.489530290876104,-171.07184273856026,3.55,1.5000000000000568,0.0012555803571428462,0.9392787388392857,0.3451450892857143,-2.0795549665178608,-0.021798270089283638,1.3035365513392836,2380.8571428571427,-256.85714285714323,-4720.928571428571,70.44747488839286,-0.186767578125,30.71541922433036,3.57
1.036,2028,2028,47189,9947.5986328125,19205.353515625,-5.989605759098332,5.821870659617695,2.0000000000000018,0.0013671874999999652,0.9831054687499999,-0.15244140625,0.6103515625000054,1.3305664062500064,0.32958984375000056,-4529.6,-2082.8,94.7999999999998,88.13671875,4.9053955078125,-113.67333984375,3.49,4.0000000000000036,0.012486049107142856,0.9765625,-0.20033482142857142,1.9880022321428572,-0.7498604910714286,-0.9242466517857142,-1002.7142857142857,-1433.142857142857,6841.428571428572,102.54717145647322,-1.4894321986607224,-171.14345005580358,3.55,2.0000000000000018,0.0011858258928571384,0.9393833705357143,0.3452845982142857,-2.101353236607144,-0.008719308035713455,1.2904575892857135,2379.142857142857,-259.1428571428573,-4714.571428571428,70.44669015066964,-0.186767578125,30.71463448660714,3.57
1.0365,2029,2029,47189,9944.1123046875,19201.990234375,-7.309336182368465,4.461480270165193,2.4999999999999467,0.0009765625,0.98291015625,-0.15234375,0.67138671875,1.40380859375,0.335693359375,-4533.0,-2082.5,92.5,88.13507080078125,4.90814208984375,-113.67279052734375,3.49,3.5000000000000586,0.01275634765624997,0.9766845703125,-0.20037841796875,1.9912719726562496,-0.7553100585937493,-0.9307861328124993,-1002.5,-1433.25,6842.0,102.54707336425781,-1.4893341064453125,-171.21505737304688,3.55,2.4999999999999467,0.0011160714285714307,0.9394880022321429,0.34542410714285715,-2.123151506696428,0.0043596540178567345,1.2773786272321432,2377.4285714285716,-261.42857142857133,-4708.214285714286,70.44590541294644,-0.186767578125,30.713849748883916,3.57
1.037,2030,2030,47190,9942.7900390625,19196.099609375,-5.321411015883909,-2.364824595591749,2.0000000000000018,0.0005859375000000348,0.9827148437500001,-0.15224609375,0.7324218749999946,1.4770507812499936,0.34179687499999944,-4536.4,-2082.2,90.2000000000002,88.1334228515625,4.910888671875,-113.6722412109375,3.49,3.0000000000001137,0.013026646205357083,0.976806640625,-0.20042201450892858,1.9945417131696421,-0.7607596261160703,-0.9373256138392843,-1002.2857142857143,-1433.357142857143,6842.571428571428,102.5469752720424,-1.4892360142299026,-171.28666469029017,3.55,2.9999999999998916,0.0010463169642857231,0.9395926339285714,0.34556361607142855,-2.1449497767857117,0.01743861607142691,1.2642996651785732,2375.714285714286,-263.71428571428544,-4701.857142857144,70.44512067522322,-0.186767578125,30.713065011160722,3.57
1.0375,2031,2031,47190,9943.1513671875,19198.263671875,-2.495516274193296,-2.776945038497155,1.4999999999998348,0.0001953124999998961,0.9825195312499999,-0.15214843749999998,0.7934570312500162,1.5502929687500195,0.3479003906250016,-4539.800000000001,-2081.9,87.89999999999938,88.13177490234375,4.91363525390625,-113.67169189453125,3.49,2.4999999999999467,0.013296944754464315,0.9769287109375,-0.20046561104910715,1.997811453683036,-0.7662091936383935,-0.9438650948660722,-1002.0714285714286,-1433.4642857142858,6843.142857142857,102.54687717982699,-1.489137922014521,-171.3582720075335,3.55,3.4999999999998366,0.0009765624999999845,0.939697265625,0.34570312500000006,-2.166748046875005,0.0305175781250029,1.2512207031249971,2373.9999999999995,-266.0000000000005,-4695.499999999998,70.4443359375,-0.186767578125,30.7122802734375,3.57
1.038,2032,2032,47191,9944.3525390625,19198.501953125,0.05713904766071298,-5.560978810818749,0.9999999999998899,-0.00019531250000006956,0.98232421875,-0.15205078125,0.8544921875000109,1.6235351562500129,0.3540039062500011,-4543.200000000001,-2081.6,85.5999999999996,88.130126953125,4.9163818359375,-113.671142578125,3.49,2.0000000000000018,0.01356724330357143,0.97705078125,-0.20050920758928573,2.0010811941964284,-0.7716587611607143,-0.9504045758928572,-1001.8571428571429,-1433.5714285714287,6843.714285714285,102.54677908761164,-1.4890398297991112,-171.42987932477678,3.55,2.9999999999998916,0.0009068080357142769,0.9398018973214286,0.34584263392857145,-2.1885463169642883,0.04359654017857309,1.2381417410714268,2372.285714285714,-268.28571428571456,-4689.142857142856,70.44355119977678,-0.186767578125,30.711495535714278,3.57
1.0385,2033,2033,47191,9940.8671875,19202.830078125,-0.9393833700148742,-2.911409135557425,0.49999999999994493,-0.0005859375000000348,0.9821289062499999,-0.151953125,0.9155273437500054,1.6967773437500067,0.36010742187500056,-4546.6,-2081.3,83.2999999999998,88.12847900390625,4.91912841796875,-113.67059326171875,3.49,1.5000000000000568,0.01383754185267854,0.9771728515625,-0.20055280412946427,2.004350934709821,-0.7771083286830351,-0.9569440569196421,-1001.6428571428571,-1433.6785714285713,6844.285714285714,102.54668099539617,-1.4889417375837013,-171.50148664202007,3.55,2.4999999999999467,0.0008370535714285692,0.9399065290178571,0.34598214285714285,-2.210344587053572,0.056675502232143266,1.2250627790178568,2370.5714285714284,-270.57142857142867,-4682.785714285714,70.44276646205356,-0.186767578125,30.710710797991084,3.57
1.039,2034,2034,47192,9938.8232421875,19202.951171875,-1.70179479187163,-3.43247006206547,0.0,-0.0009765625,0.98193359375,-0.15185546875,0.9765625,1.77001953125,0.3662109375,-4550.0,-2081.0,81.0,88.1268310546875,4.921875,-113.6700439453125,3.49,1.000000000000112,0.014107840401785653,0.977294921875,-0.20059640066964285,2.0076206752232135,-0.7825578962053559,-0.963483537946427,-1001.4285714285714,-1433.7857142857142,6844.857142857143,102.54658290318082,-1.4888436453682914,-171.5730939592634,3.55,2.0000000000000018,0.0007672991071428616,0.9400111607142857,0.3461216517857143,-2.232142857142856,0.06975446428571347,1.2119838169642865,2368.857142857143,-272.8571428571427,-4676.428571428572,70.44198172433036,-0.186767578125,30.70992606026786,3.57
1.0395,2035,2035,47192,9933.8955078125,19202.58984375,-4.005322765108136,-4.157737429689597,0.500000000000167,-0.0012207031250000774,0.9818987165178571,-0.15161132812499992,0.9809221540178585,1.7830984933035756,0.3749302455357171,-4549.642857142857,-2080.142857142857,81.28571428571438,88.12643868582586,4.922659737723222,-113.66965157645089,3.49,0.49999999999994493,0.014378138950892887,0.9774169921875,-0.20063999720982142,2.0108904157366077,-0.7880074637276792,-0.9700230189732151,-1001.2142857142857,-1433.892857142857,6845.428571428572,102.54648481096541,-1.48874555315291,-171.6447012765067,3.55,1.4999999999998348,0.0006975446428571229,0.9401157924107143,0.34626116071428575,-2.253941127232149,0.08283342633928945,1.1989048549107106,2367.1428571428564,-275.1428571428578,-4670.071428571427,70.44119698660714,-0.186767578125,30.70914132254464,3.57
1.04,2036,2036,47193,9939.0634765625,19200.546875,2.0305820882962236,-5.566466193963738,1.000000000000112,-0.0014648437500000464,0.9818638392857143,-0.15136718749999994,0.9852818080357151,1.7961774553571455,0.3836495535714302,-4549.285714285714,-2079.285714285714,81.57142857142863,88.12604631696428,4.923444475446416,-113.66925920758929,3.49,0.0,0.0146484375,0.9775390625,-0.20068359375,2.01416015625,-0.79345703125,-0.9765625,-1001.0,-1434.0,6846.0,102.54638671875,-1.4886474609375,-171.71630859375,3.55,0.9999999999998899,0.0006277901785714153,0.9402204241071429,0.34640066964285715,-2.275739397321433,0.09591238839285962,1.1858258928571404,2365.428571428571,-277.42857142857184,-4663.714285714284,70.44041224888394,-0.186767578125,30.708356584821416,3.57
1.0405,2037,2037,47193,9940.7470703125,19191.412109375,4.352135617072948,-13.233863654129436,1.5000000000000568,-0.0017089843750000156,0.9818289620535714,-0.15112304687499997,0.9896414620535717,1.809256417410715,0.3923688616071434,-4548.928571428572,-2078.4285714285716,81.85714285714288,88.1256539481027,4.924229213169639,-113.66886683872768,3.49,0.49999999999994493,0.01483154296874998,0.97772216796875,-0.20079345703124998,1.995849609375002,-0.802612304687499,-0.9719848632812506,-1000.1500000000001,-1433.25,6845.125,102.52729797363281,-1.4776611328125,-171.71273803710938,3.55,0.49999999999994493,0.0005580357142857076,0.9403250558035714,0.3465401785714286,-2.297537667410716,0.10899135044642982,1.1727469308035703,2363.7142857142853,-279.71428571428595,-4657.357142857142,70.43962751116072,-0.186767578125,30.707571847098222,3.57
1.041,2038,2038,47194,9940.9873046875,19183.1171875,4.8296487391443,-17.68090981914603,2.0000000000000018,-0.0019531249999999846,0.9817940848214286,-0.15087890625000003,0.9940011160714283,1.822335379464285,0.4010881696428566,-4548.571428571428,-2077.5714285714284,82.14285714285712,88.12526157924106,4.925013950892861,-113.66847446986607,3.49,0.9999999999998899,0.01501464843749996,0.9779052734375,-0.20090332031249997,1.977539062500004,-0.811767578124998,-0.967407226562501,-999.3000000000002,-1432.5000000000002,6844.25,102.50820922851562,-1.4666748046875,-171.70916748046875,3.55,0.0,0.00048828125,0.9404296875,0.3466796875,-2.3193359375,0.1220703125,1.15966796875,2362.0,-282.0,-4651.0,70.4388427734375,-0.186767578125,30.706787109375,3.57
1.0415,2039,2039,47194,9940.626953125,19181.916015625,6.181859633719117,-17.069330240021873,2.5000000000001688,-0.0021972656250000616,0.9817592075892857,-0.15063476562499994,0.9983607700892868,1.8354143415178605,0.4098074776785736,-4548.214285714285,-2076.7142857142853,82.4285714285715,88.12486921037947,4.925798688616084,-113.66808210100446,3.49,1.5000000000000568,0.01519775390625002,0.97808837890625,-0.20101318359375,1.959228515624998,-0.820922851562501,-0.9628295898437494,-998.4499999999999,-1431.75,6843.375,102.48912048339844,-1.4556884765625,-171.70559692382812,3.55,0.500000000000167,0.0005231584821428682,0.9403250558035714,0.3466796875,-2.310616629464283,0.10027204241070736,1.150948660714283,2361.428571428571,-282.2857142857144,-4649.142857142857,70.43845040457589,-0.186767578125,30.706787109375,3.57
1.042,2040,2040,47195,9939.0634765625,19182.03515625,2.9932452104914966,-15.074230391353712,3.0000000000001137,-0.0024414062500000312,0.9817243303571429,-0.15039062499999997,1.0027204241071435,1.8484933035714302,0.4185267857142868,-4547.857142857143,-2075.8571428571427,82.71428571428575,88.12447684151789,4.926583426339278,-113.66768973214286,3.49,2.0000000000000018,0.015380859375,0.978271484375,-0.201123046875,1.94091796875,-0.830078125,-0.958251953125,-997.6,-1431.0,6842.5,102.47003173828125,-1.4447021484375,-171.7020263671875,3.55,1.000000000000112,0.000558035714285721,0.9402204241071428,0.3466796875,-2.30189732142857,0.07847377232142443,1.1422293526785698,2360.8571428571427,-282.5714285714286,-4647.285714285714,70.43805803571428,-0.186767578125,30.706787109375,3.57
1.0425,2041,2041,47195,9937.140625,19186.962890625,3.1653254909314996,-8.009908714734681,3.5000000000000586,-0.002685546875,0.981689453125,-0.150146484375,1.007080078125,1.861572265625,0.42724609375,-4547.5,-2075.0,83.0,88.12408447265625,4.9273681640625,-113.66729736328125,3.49,2.4999999999999467,0.01556396484374998,0.97845458984375,-0.20123291015625,1.922607421875002,-0.839233398437499,-0.9536743164062506,-996.7500000000001,-1430.25,6841.625,102.45094299316406,-1.4337158203125,-171.69845581054688,3.55,1.5000000000000568,0.0005929129464285737,0.9401157924107143,0.3466796875,-2.2931780133928568,0.056675502232141475,1.1335100446428565,2360.285714285714,-282.8571428571429,-4645.428571428572,70.4376656668527,-0.186767578125,30.706787109375,3.57
1.043,2042,2042,47196,9931.7314453125,19195.017578125,-0.27580487443361856,2.3047792047000355,3.0000000000001137,-0.002929687499999969,0.9816545758928571,-0.14990234375000003,1.0114397321428565,1.8746512276785698,0.4359654017857132,-4547.142857142857,-2074.1428571428573,83.28571428571425,88.12369210379461,4.928152901785722,-113.66690499441964,3.49,2.9999999999998916,0.01574707031249996,0.9786376953125,-0.20134277343749998,1.904296875000004,-0.848388671874998,-0.949096679687501,-995.9000000000002,-1429.5000000000002,6840.75,102.43185424804688,-1.4227294921875,-171.69488525390625,3.55,2.0000000000000018,0.0006277901785714263,0.9400111607142857,0.3466796875,-2.2844587053571432,0.034877232142858525,1.1247907366071435,2359.714285714286,-283.1428571428571,-4643.571428571428,70.43727329799106,-0.186767578125,30.706787109375,3.57
1.0435,2043,2043,47196,9929.0869140625,19197.90234375,-1.860631631905594,6.849485742759413,2.4999999999999467,-0.0031738281250000464,0.9816196986607143,-0.14965820312499994,1.015799386160715,1.8877301897321455,0.4446847098214302,-4546.785714285714,-2073.285714285714,83.57142857142863,88.12329973493303,4.928937639508916,-113.66651262555804,3.49,3.5000000000000586,0.01593017578125002,0.97882080078125,-0.20145263671875002,1.885986328124998,-0.857543945312501,-0.9445190429687494,-995.05,-1428.75,6839.875,102.41276550292969,-1.4117431640625,-171.69131469726562,3.55,2.5000000000001688,0.0006626674107142945,0.9399065290178571,0.3466796875,-2.275739397321426,0.013078962053565901,1.1160714285714264,2359.142857142857,-283.4285714285715,-4641.714285714285,70.43688092912947,-0.186767578125,30.706787109375,3.57
1.044,2044,2044,47197,9928.6064453125,19201.02734375,-0.408426122569595,10.50155245575675,2.0000000000000018,-0.0034179687500000156,0.9815848214285714,-0.14941406249999997,1.0201590401785716,1.900809151785715,0.4534040178571434,-4546.428571428572,-2072.4285714285716,83.85714285714288,88.12290736607144,4.929722377232139,-113.66612025669643,3.49,4.0000000000000036,0.01611328125,0.97900390625,-0.2015625,1.86767578125,-0.86669921875,-0.93994140625,-994.2,-1428.0,6839.0,102.3936767578125,-1.4007568359375,-171.687744140625,3.55,3.0000000000001137,0.0006975446428571473,0.9398018973214286,0.3466796875,-2.267020089285713,-0.00871930803571705,1.107352120535713,2358.5714285714284,-283.7142857142857,-4639.857142857142,70.43648856026786,-0.186767578125,30.706787109375,3.57
1.0445,2045,2045,47197,9929.6884765625,19198.263671875,1.7998933063382565,5.5671308673081965,1.5000000000000568,-0.0036621093749999844,0.9815499441964286,-0.14916992187500003,1.0245186941964284,1.913888113839285,0.4621233258928566,-4546.071428571428,-2071.5714285714284,84.14285714285712,88.1225149972098,4.930507114955361,-113.66572788783482,3.49,4.4999999999999485,0.01629638671874998,0.97918701171875,-0.20167236328125,1.849365234375002,-0.875854492187499,-0.9353637695312506,-993.3500000000001,-1427.25,6838.125,102.37458801269531,-1.3897705078125,-171.68417358398438,3.55,3.5000000000000586,0.000732421875,0.939697265625,0.3466796875,-2.25830078125,-0.030517578125,1.0986328125,2358.0,-284.0,-4638.0,70.43609619140625,-0.186767578125,30.706787109375,3.57
1.045,2046,2046,47198,9928.24609375,19195.978515625,1.0969813879769261,2.831250751987329,1.000000000000112,-0.0039062499999999536,0.9815150669642857,-0.14892578125000006,1.028878348214285,1.9269670758928545,0.4708426339285698,-4545.714285714286,-2070.714285714286,84.42857142857137,88.12212262834822,4.931291852678584,-113.66533551897321,3.49,4.999999999999893,0.01647949218749996,0.9793701171875,-0.20178222656249997,1.831054687500004,-0.885009765624998,-0.930786132812501,-992.5000000000002,-1426.5000000000002,6837.25,102.35549926757812,-1.3787841796875,-171.68060302734375,3.55,3.0000000000001137,0.0007672991071428527,0.9395926339285714,0.3466796875,-2.249581473214287,-0.05231584821428295,1.089913504464287,2357.4285714285716,-284.2857142857143,-4636.142857142858,70.43570382254464,-0.186767578125,30.706787109375,3.57
1.0455,2047,2047,47198,9925.1201171875,19191.412109375,-1.0073415609877725,-0.449289999165428,0.49999999999994493,-0.004150390625000031,0.9814801897321429,-0.14868164062499997,1.0332380022321435,1.9400460379464302,0.4795619419642868,-4545.357142857143,-2069.8571428571427,84.71428571428575,88.12173025948664,4.932076590401778,-113.66494315011161,3.49,5.50000000000006,0.01666259765625002,0.97955322265625,-0.20189208984375,1.812744140624998,-0.894165039062501,-0.9262084960937494,-991.6499999999999,-1425.75,6836.375,102.33641052246094,-1.3677978515625,-171.67703247070312,3.55,2.4999999999999467,0.000802176339285721,0.9394880022321428,0.3466796875,-2.24086216517857,-0.07411411830357559,1.0811941964285698,2356.8571428571427,-284.5714285714286,-4634.285714285714,70.43531145368303,-0.186767578125,30.706787109375,3.57
1.046,2048,2048,47199,9924.1591796875,19192.494140625,0.7511834566222559,2.4914521346056087,0.0,-0.00439453125,0.9814453125,-0.1484375,1.03759765625,1.953125,0.48828125,-4545.0,-2069.0,85.0,88.121337890625,4.932861328125,-113.66455078125,3.49,6.000000000000005,0.016845703125,0.979736328125,-0.202001953125,1.79443359375,-0.9033203125,-0.921630859375,-990.8,-1425.0,6835.5,102.31732177734375,-1.3568115234375,-171.6734619140625,3.55,2.0000000000000018,0.0008370535714285737,0.9393833705357143,0.3466796875,-2.2321428571428568,-0.09591238839285854,1.0724748883928565,2356.285714285714,-284.8571428571429,-4632.428571428572,70.43491908482144,-0.186767578125,30.706787109375,3.57
1.0465,2049,2049,47199,9923.6787109375,19190.689453125,1.7777225656417959,0.1758594471910011,0.49999999999994493,-0.0046037946428571196,0.9814453125,-0.14829799107142858,1.05067661830357,1.9422258649553583,0.50136021205357,-4546.142857142857,-2068.8214285714284,86.03571428571416,88.12114170619418,4.933842250279014,-113.6643545968192,3.49,6.49999999999995,0.01702880859374998,0.97991943359375,-0.20211181640624998,1.776123046875002,-0.912475585937499,-0.9170532226562506,-989.95,-1424.25,6834.625,102.29823303222656,-1.3458251953125,-171.66989135742188,3.55,1.5000000000000568,0.0008719308035714263,0.9392787388392857,0.3466796875,-2.2234235491071432,-0.11771065848214146,1.0637555803571435,2355.714285714286,-285.1428571428571,-4630.571428571428,70.4345267159598,-0.186767578125,30.706787109375,3.57
1.047,2050,2050,47200,9926.08203125,19189.3671875,5.1042151226140575,-0.5293680613802855,0.9999999999998899,-0.004813058035714239,0.9814453125,-0.14815848214285718,1.06375558035714,1.9313267299107166,0.5144391741071399,-4547.285714285714,-2068.6428571428573,87.07142857142834,88.12094552176336,4.934823172433028,-113.66415841238839,3.49,6.999999999999895,0.01721191406249996,0.9801025390625,-0.2022216796875,1.757812500000004,-0.921630859374998,-0.912475585937501,-989.1000000000001,-1423.5000000000002,6833.75,102.27914428710938,-1.3348388671875,-171.66632080078125,3.55,1.000000000000112,0.000906808035714279,0.9391741071428572,0.3466796875,-2.21470424107143,-0.13950892857142444,1.0550362723214302,2355.1428571428573,-285.4285714285714,-4628.714285714286,70.43413434709822,-0.186767578125,30.706787109375,3.57
1.0475,2051,2051,47200,9925.3603515625,19191.169921875,5.295117154580027,1.7504007955251617,1.5000000000000568,-0.0050223214285714515,0.9814453125,-0.1480189732142857,1.0768345424107157,1.9204275948660703,0.5275181361607157,-4548.428571428572,-2068.464285714286,88.10714285714297,88.1207493373326,4.935804094587041,-113.66396222795758,3.49,7.500000000000062,0.01739501953125002,0.98028564453125,-0.20233154296875,1.739501953124998,-0.930786132812501,-0.9078979492187494,-988.2499999999999,-1422.75,6832.875,102.26005554199219,-1.3238525390625,-171.66275024414062,3.55,0.49999999999994493,0.0009416852678571473,0.9390694754464286,0.3466796875,-2.205984933035713,-0.16130719866071702,1.046316964285713,2354.5714285714284,-285.7142857142857,-4626.857142857142,70.43374197823661,-0.186767578125,30.706787109375,3.57
1.048,2052,2052,47201,9924.759765625,19191.412109375,5.857345262716738,1.3029815952303183,2.0000000000000018,-0.005231584821428571,0.9814453125,-0.14787946428571427,1.0899135044642858,1.9095284598214286,0.5405970982142857,-4549.571428571428,-2068.285714285714,89.14285714285714,88.12055315290178,4.936785016741084,-113.66376604352679,3.49,8.000000000000007,0.017578125,0.98046875,-0.20244140625,1.72119140625,-0.93994140625,-0.9033203125,-987.4,-1422.0,6832.0,102.240966796875,-1.3128662109375,-171.6591796875,3.55,0.0,0.0009765625,0.93896484375,0.3466796875,-2.197265625,-0.18310546875,1.03759765625,2354.0,-286.0,-4625.0,70.433349609375,-0.186767578125,30.706787109375,3.57
1.0485,2053,2053,47201,9926.322265625,19188.40625,7.26363849478852,-1.596894102068895,2.4999999999999467,-0.0054408482142856915,0.9814453125,-0.14773995535714288,1.1029924665178557,1.898629324776787,0.5536760602678557,-4550.714285714285,-2068.1071428571427,90.17857142857132,88.12035696847101,4.937765938895097,-113.66356985909599,3.49,8.499999999999952,0.01776123046874998,0.98065185546875,-0.20255126953125,1.702880859375002,-0.949096679687499,-0.8987426757812506,-986.5500000000001,-1421.25,6831.125,102.22187805175781,-1.3018798828125,-171.65560913085938,3.55,0.49999999999994493,0.000996907552083331,0.9389241536458334,0.3466593424479167,-2.189636230468751,-0.18564860026041638,1.0401407877604163,2352.875,-286.70833333333326,-4624.916666666667,70.433349609375,-0.186767578125,30.706787109375,3.57
1.049,2054,2054,47202,9925.7216796875,19189.48828125,6.64845855173453,1.1185787021523608,2.9999999999998916,-0.005650111607142811,0.9814453125,-0.14760044642857145,1.1160714285714257,1.8877301897321452,0.5667550223214257,-4551.857142857142,-2067.9285714285716,91.21428571428548,88.1201607840402,4.938746861049111,-113.66337367466518,3.49,8.999999999999897,0.01794433593749996,0.9808349609375,-0.20266113281249998,1.684570312500004,-0.958251953124998,-0.894165039062501,-985.7000000000002,-1420.5000000000002,6830.25,102.20278930664062,-1.2908935546875,-171.65203857421875,3.55,0.9999999999998899,0.0010172526041666622,0.9388834635416666,0.3466389973958333,-2.1820068359375018,-0.18819173177083276,1.0426839192708328,2351.7500000000005,-287.4166666666665,-4624.833333333333,70.433349609375,-0.186767578125,30.706787109375,3.57
1.0495,2055,2055,47202,9926.322265625,19193.935546875,7.284814310250611,7.08424688913986,3.5000000000000586,-0.0058593750000000226,0.9814453125,-0.14746093749999997,1.1291503906250013,1.876831054687499,0.5798339843750014,-4553.0,-2067.75,92.25000000000011,88.11996459960938,4.939727783203125,-113.66317749023438,3.49,9.500000000000064,0.01812744140625002,0.98101806640625,-0.20277099609375002,1.666259765624998,-0.967407226562501,-0.8895874023437496,-984.8499999999999,-1419.75,6829.375,102.18370056152344,-1.2799072265625,-171.64846801757812,3.55,1.5000000000000568,0.0010375976562500022,0.9388427734375,0.34661865234375,-2.174377441406249,-0.19073486328125028,1.0452270507812502,2350.625,-288.12500000000006,-4624.75,70.433349609375,-0.186767578125,30.706787109375,3.57
1.05,2056,2056,47203,9925.6015625,19198.623046875,6.271642607288661,10.38244186619759,4.0000000000000036,-0.006068638392857143,0.9814453125,-0.14732142857142858,1.1422293526785714,1.8659319196428572,0.5929129464285714,-4554.142857142857,-2067.5714285714284,93.28571428571428,88.11976841517856,4.940708705357139,-113.66298130580357,3.49,10.000000000000009,0.018310546875,0.981201171875,-0.202880859375,1.64794921875,-0.9765625,-0.885009765625,-984.0,-1419.0,6828.5,102.16461181640625,-1.2689208984375,-171.6448974609375,3.55,2.0000000000000018,0.0010579427083333333,0.9388020833333334,0.3465983072916667,-2.166748046875,-0.19327799479166666,1.0477701822916667,2349.5,-288.8333333333333,-4624.666666666667,70.433349609375,-0.186767578125,30.706787109375,3.57
1.0505,2057,2057,47203,9922.115234375,19197.541015625,3.769195834565213,7.367389350101977,4.4999999999999485,-0.0062779017857142625,0.9814453125,-0.14718191964285715,1.1553083147321415,1.8550327845982155,0.6059919084821415,-4555.285714285714,-2067.3928571428573,94.32142857142846,88.11957223074774,4.941689627511153,-113.66278512137276,3.49,9.500000000000064,0.01849365234374998,0.98138427734375,-0.20299072265624998,1.629638671875002,-0.985717773437499,-0.8804321289062504,-983.1500000000001,-1418.25,6827.625,102.14552307128906,-1.2579345703125,-171.64132690429688,3.55,2.4999999999999467,0.0010782877604166644,0.9387613932291666,0.3465779622395833,-2.159118652343751,-0.19582112630208304,1.050313313802083,2348.375,-289.5416666666666,-4624.583333333333,70.433349609375,-0.186767578125,30.706787109375,3.57
1.051,2058,2058,47204,9920.1923828125,19194.77734375,1.653398055693799,3.6382517337594287,4.999999999999893,-0.006487165178571382,0.9814453125,-0.14704241071428575,1.1683872767857113,1.8441336495535738,0.6190708705357114,-4556.428571428572,-2067.214285714286,95.35714285714263,88.11937604631697,4.942670549665166,-113.66258893694196,3.49,9.000000000000119,0.01867675781249996,0.9815673828125,-0.20310058593749997,1.611328125000004,-0.994873046874998,-0.875854492187501,-982.3000000000002,-1417.5000000000002,6826.75,102.12643432617188,-1.2469482421875,-171.63775634765625,3.55,2.9999999999998916,0.0010986328124999954,0.938720703125,0.3465576171875,-2.1514892578125018,-0.19836425781249944,1.0528564453124993,2347.2500000000005,-290.24999999999983,-4624.5,70.433349609375,-0.186767578125,30.706787109375,3.57
1.0515,2059,2059,47204,9921.0341796875,19191.05078125,2.500963080330051,0.3741069794895511,5.50000000000006,-0.0066964285714285945,0.9814453125,-0.14690290178571427,1.1814662388392871,1.8332345145089273,0.6321498325892871,-4557.571428571428,-2067.035714285714,96.39285714285725,88.11917986188615,4.943651471819209,-113.66239275251117,3.49,8.499999999999952,0.01885986328125002,0.98175048828125,-0.20321044921875,1.593017578124998,-1.0040283203125009,-0.8712768554687496,-981.4499999999999,-1416.75,6825.875,102.10734558105469,-1.2359619140625,-171.63418579101562,3.55,3.5000000000000586,0.0011189778645833356,0.9386800130208334,0.3465372721354167,-2.143859863281249,-0.20090738932291696,1.055399576822917,2346.125,-290.9583333333334,-4624.416666666667,70.433349609375,-0.186767578125,30.706787109375,3.57
1.052,2060,2060,47205,9924.279296875,19187.205078125,4.852487312421639,-1.426740883793828,6.000000000000005,-0.006905691964285714,0.9814453125,-0.14676339285714285,1.1945452008928572,1.8223353794642858,0.6452287946428571,-4558.714285714285,-2066.8571428571427,97.42857142857143,88.11898367745539,4.944632393973222,-113.66219656808036,3.49,8.000000000000007,0.01904296875,0.98193359375,-0.2033203125,1.57470703125,-1.01318359375,-0.86669921875,-980.6,-1416.0,6825.0,102.0882568359375,-1.2249755859375,-171.630615234375,3.55,4.0000000000000036,0.0011393229166666667,0.9386393229166666,0.3465169270833333,-2.13623046875,-0.20345052083333334,1.0579427083333333,2345.0,-291.6666666666667,-4624.333333333333,70.433349609375,-0.186767578125,30.706787109375,3.57
1.0525,2061,2061,47205,9923.0771484375,19182.755859375,3.174715831433167,-5.832729392806145,6.49999999999995,-0.007114955357142834,0.9814453125,-0.14662388392857145,1.207624162946427,1.8114362444196441,0.658307756696427,-4559.857142857143,-2066.6785714285716,98.4642857142856,88.11878749302457,4.945613316127236,-113.66200038364956,3.49,7.500000000000062,0.01922607421874998,0.98211669921875,-0.20343017578125,1.556396484375002,-1.022338867187499,-0.8621215820312506,-979.7500000000001,-1415.25,6824.125,102.06916809082031,-1.2139892578125,-171.62704467773438,3.55,4.4999999999999485,0.0011596679687499978,0.9385986328125,0.34649658203125,-2.128601074218751,-0.20599365234374972,1.0604858398437498,2343.875,-292.37499999999994,-4624.25,70.433349609375,-0.186767578125,30.706787109375,3.57
1.053,2062,2062,47206,9923.0771484375,19188.287109375,2.3628773052338414,-1.7400315577067387,6.999999999999895,-0.007324218749999953,0.9814453125,-0.14648437500000003,1.2207031249999971,1.8005371093750024,0.6713867187499971,-4561.0,-2066.5,99.49999999999977,88.11859130859375,4.94659423828125,-113.66180419921875,3.49,7.000000000000117,0.01940917968749996,0.9822998046875,-0.20354003906249998,1.538085937500004,-1.031494140624998,-0.857543945312501,-978.9000000000002,-1414.5000000000002,6823.25,102.05007934570312,-1.2030029296875,-171.62347412109375,3.55,4.999999999999893,0.0011800130208333287,0.9385579427083334,0.3464762369791667,-2.1209716796875018,-0.2085367838541661,1.063028971354166,2342.7500000000005,-293.0833333333332,-4624.166666666667,70.433349609375,-0.186767578125,30.706787109375,3.57
1.0535,2063,2063,47206,9923.5576171875,19195.619140625,3.210203401008854,4.34825909727127,6.49999999999995,-0.007533482142857166,0.9814453125,-0.14634486607142855,1.233782087053573,1.7896379743303559,0.684465680803573,-4562.142857142857,-2066.3214285714284,100.5357142857144,88.11839512416293,4.947575160435264,-113.66160801478794,3.49,6.49999999999995,0.01959228515625002,0.98248291015625,-0.20364990234375002,1.519775390624998,-1.040649414062501,-0.8529663085937494,-978.05,-1413.75,6822.375,102.03099060058594,-1.1920166015625,-171.61990356445312,3.55,5.50000000000006,0.001200358072916669,0.9385172526041666,0.3464558919270833,-2.113342285156249,-0.21107991536458362,1.0655721028645837,2341.625,-293.79166666666674,-4624.083333333333,70.433349609375,-0.186767578125,30.706787109375,3.57
1.054,2064,2064,47207,9920.1923828125,19208.119140625,0.052054360646852205,13.06908998584682,6.000000000000005,-0.007742745535714286,0.9814453125,-0.14620535714285715,1.2468610491071428,1.7787388392857144,0.6975446428571428,-4563.285714285715,-2066.1428571428573,101.57142857142857,88.11819893973211,4.948556082589278,-113.66141183035714,3.49,6.000000000000005,0.019775390625,0.982666015625,-0.203759765625,1.50146484375,-1.0498046875,-0.848388671875,-977.2,-1413.0,6821.5,102.01190185546875,-1.1810302734375,-171.6163330078125,3.55,6.000000000000005,0.001220703125,0.9384765625,0.346435546875,-2.105712890625,-0.213623046875,1.068115234375,2340.5,-294.5,-4624.0,70.433349609375,-0.186767578125,30.706787109375,3.57
1.0545,2065,2065,47207,9921.634765625,19209.560546875,2.062095315766144,10.112476854348373,5.50000000000006,-0.007952008928571406,0.9814453125,-0.14606584821428573,1.2599400111607129,1.7678397042410725,0.7106236049107129,-4564.428571428572,-2065.964285714286,102.60714285714275,88.11800275530135,4.949537004743291,-113.66121564592633,3.49,5.50000000000006,0.01995849609374998,0.98284912109375,-0.20386962890625,1.483154296875002,-1.0589599609374991,-0.8438110351562504,-976.3500000000001,-1412.25,6820.625,101.99281311035156,-1.1700439453125,-171.61276245117188,3.55,5.50000000000006,0.001241048177083331,0.9384358723958334,0.3464152018229167,-2.098083496093751,-0.21616617838541638,1.0706583658854163,2339.375,-295.20833333333326,-4623.916666666667,70.433349609375,-0.186767578125,30.706787109375,3.57
1.055,2066,2066,47208,9922.115234375,19196.939453125,1.5736810994438628,-1.5565749615498317,5.0000000000001155,-0.008161272321428525,0.9814453125,-0.14592633928571433,1.273018973214283,1.756940569196431,0.7237025669642828,-4565.571428571428,-2065.785714285714,103.64285714285691,88.11780657087053,4.950517926897334,-113.66101946149554,3.49,5.0000000000001155,0.02014160156249996,0.9830322265625,-0.20397949218749997,1.464843750000004,-1.068115234374998,-0.839233398437501,-975.5000000000002,-1411.5000000000002,6819.75,101.97372436523438,-1.1590576171875,-171.60919189453125,3.55,5.0000000000001155,0.0012613932291666622,0.9383951822916666,0.3463948567708333,-2.0904541015625018,-0.21870930989583276,1.0732014973958328,2338.2500000000005,-295.9166666666665,-4623.833333333333,70.433349609375,-0.186767578125,30.706787109375,3.57
1.0555,2067,2067,47208,9924.1591796875,19185.76171875,2.8040861390305514,-6.699596937765003,4.4999999999999485,-0.008370535714285737,0.9814453125,-0.14578683035714285,1.2860979352678585,1.7460414341517845,0.7367815290178585,-4566.714285714286,-2065.6071428571427,104.67857142857154,88.11761038643976,4.951498849051347,-113.66082327706474,3.49,4.4999999999999485,0.02032470703125002,0.98321533203125,-0.20408935546875,1.446533203124998,-1.0772705078125009,-0.8346557617187496,-974.6499999999999,-1410.75,6818.875,101.95463562011719,-1.1480712890625,-171.60562133789062,3.55,4.4999999999999485,0.0012817382812500022,0.9383544921875,0.34637451171875,-2.082824707031249,-0.22125244140625028,1.0757446289062502,2337.125,-296.62500000000006,-4623.75,70.433349609375,-0.186767578125,30.706787109375,3.57
1.056,2068,2068,47209,9925.6015625,19189.849609375,4.36388671446514,1.3812511229680209,4.0000000000000036,-0.008579799107142856,0.9814453125,-0.14564732142857142,1.2991768973214286,1.7351422991071428,0.7498604910714286,-4567.857142857143,-2065.4285714285716,105.71428571428572,88.11741420200894,4.952479771205361,-113.66062709263393,3.49,4.0000000000000036,0.0205078125,0.9833984375,-0.20419921875,1.42822265625,-1.08642578125,-0.830078125,-973.8,-1410.0,6818.0,101.935546875,-1.1370849609375,-171.60205078125,3.55,4.0000000000000036,0.0013020833333333333,0.9383138020833334,0.3463541666666667,-2.0751953125,-0.22379557291666666,1.0782877604166667,2336.0,-297.3333333333333,-4623.666666666667,70.433349609375,-0.186767578125,30.706787109375,3.57
1.0565,2069,2069,47209,9924.0380859375,19194.896484375,2.4773351376837596,7.563322067845505,3.5000000000000586,-0.008789062499999976,0.9814453125,-0.14550781250000003,1.3122558593749987,1.7242431640625013,0.7629394531249986,-4569.0,-2065.25,106.74999999999989,88.11721801757812,4.953460693359375,-113.66043090820312,3.49,3.5000000000000586,0.02069091796874998,0.98358154296875,-0.20430908203124998,1.4099121093750022,-1.095581054687499,-0.8255004882812506,-972.95,-1409.25,6817.125,101.91645812988281,-1.1260986328125,-171.59848022460938,3.55,3.5000000000000586,0.0013224283854166644,0.9382731119791666,0.3463338216145833,-2.067565917968751,-0.22633870442708304,1.080830891927083,2334.875,-298.0416666666666,-4623.583333333333,70.433349609375,-0.186767578125,30.706787109375,3.57
1.057,2070,2070,47210,9921.5146484375,19204.994140625,0.5791312488238631,13.95458773782178,3.0000000000001137,-0.008998325892857097,0.9814453125,-0.1453683035714286,1.3253348214285685,1.7133440290178596,0.7760184151785685,-4570.142857142857,-2065.0714285714284,107.78571428571405,88.1170218331473,4.954441615513389,-113.66023472377232,3.49,3.0000000000001137,0.02087402343749996,0.9837646484375,-0.2044189453125,1.391601562500004,-1.104736328124998,-0.820922851562501,-972.1000000000001,-1408.5000000000002,6816.25,101.89736938476562,-1.1151123046875,-171.59490966796875,3.55,3.0000000000001137,0.0013427734374999954,0.938232421875,0.3463134765625,-2.0599365234375018,-0.22888183593749944,1.0833740234374993,2333.7500000000005,-298.74999999999983,-4623.5,70.433349609375,-0.186767578125,30.706787109375,3.57
1.0575,2071,2071,47210,9923.0771484375,19207.3984375,1.7289321123075772,10.068206903496709,2.4999999999999467,-0.009207589285714309,0.9814453125,-0.14522879464285712,1.3384137834821443,1.702444893973213,0.7890973772321443,-4571.285714285715,-2064.8928571428573,108.82142857142868,88.11682564871649,4.955422537667403,-113.66003853934151,3.49,2.4999999999999467,0.02105712890625002,0.98394775390625,-0.20452880859375,1.373291015624998,-1.1138916015625009,-0.8163452148437496,-971.2499999999999,-1407.75,6815.375,101.87828063964844,-1.1041259765625,-171.59133911132812,3.55,2.4999999999999467,0.0013631184895833356,0.9381917317708334,0.3462931315104167,-2.052307128906249,-0.23142496744791696,1.085917154947917,2332.625,-299.4583333333334,-4623.416666666667,70.433349609375,-0.186767578125,30.706787109375,3.57
1.058,2072,2072,47211,9922.5966796875,19202.109375,0.33018713538283034,0.018904505298586116,2.0000000000000018,-0.009416852678571428,0.9814453125,-0.14508928571428573,1.3514927455357142,1.6915457589285714,0.8021763392857142,-4572.428571428572,-2064.714285714286,109.85714285714286,88.11662946428572,4.956403459821416,-113.65984235491071,3.49,2.0000000000000018,0.021240234375,0.984130859375,-0.204638671875,1.35498046875,-1.123046875,-0.811767578125,-970.4,-1407.0,6814.5,101.85919189453125,-1.0931396484375,-171.5877685546875,3.55,2.0000000000000018,0.0013834635416666667,0.9381510416666666,0.3462727864583333,-2.044677734375,-0.23396809895833334,1.0884602864583333,2331.5,-300.1666666666667,-4623.333333333333,70.433349609375,-0.186767578125,30.706787109375,3.57
1.0585,2073,2073,47211,9919.8310546875,19202.470703125,-1.450675758909143,-3.091675936441291,1.5000000000000568,-0.009626116071428548,0.9814453125,-0.1449497767857143,1.3645717075892843,1.6806466238839297,0.8152553013392843,-4573.571428571428,-2064.535714285714,110.89285714285703,88.1164332798549,4.957384381975459,-113.65964617047992,3.49,1.5000000000000568,0.02142333984374998,0.98431396484375,-0.20474853515625,1.336669921875002,-1.1322021484374991,-0.8071899414062504,-969.5500000000001,-1406.25,6813.625,101.84010314941406,-1.0821533203125,-171.58419799804688,3.55,1.5000000000000568,0.0014038085937499978,0.9381103515625,0.34625244140625,-2.037048339843751,-0.23651123046874972,1.0910034179687498,2330.375,-300.87499999999994,-4623.25,70.433349609375,-0.186767578125,30.706787109375,3.57
1.059,2074,2074,47212,9919.3505859375,19203.912109375,-2.3234057028561335,-3.5183189931820387,1.000000000000112,-0.009835379464285667,0.9814453125,-0.14481026785714288,1.377650669642854,1.6697474888392883,0.8283342633928542,-4574.714285714285,-2064.357142857143,111.92857142857119,88.11623709542414,4.958365304129472,-113.65944998604911,3.49,1.000000000000112,0.02160644531249996,0.9844970703125,-0.20485839843749998,1.318359375000004,-1.141357421874998,-0.802612304687501,-968.7000000000002,-1405.5000000000002,6812.75,101.82101440429688,-1.0711669921875,-171.58062744140625,3.55,1.000000000000112,0.0014241536458333287,0.9380696614583334,0.3462320963541667,-2.0294189453125018,-0.2390543619791661,1.093546549479166,2329.2500000000005,-301.5833333333332,-4623.166666666667,70.433349609375,-0.186767578125,30.706787109375,3.57
1.0595,2075,2075,47212,9922.716796875,19204.2734375,0.8942592813632038,-4.66161501442612,0.49999999999994493,-0.01004464285714288,0.9814453125,-0.14467075892857142,1.3907296316964302,1.6588483537946417,0.84141322544643,-4575.857142857143,-2064.1785714285716,112.96428571428584,88.11604091099332,4.959346226283486,-113.6592538016183,3.49,0.49999999999994493,0.02178955078125002,0.98468017578125,-0.20496826171875002,1.300048828124998,-1.1505126953125009,-0.7980346679687496,-967.8499999999999,-1404.75,6811.875,101.80192565917969,-1.0601806640625,-171.57705688476562,3.55,0.49999999999994493,0.001444498697916669,0.9380289713541666,0.3462117513020833,-2.021789550781249,-0.24159749348958362,1.0960896809895837,2328.125,-302.29166666666674,-4623.083333333333,70.433349609375,-0.186767578125,30.706787109375,3.57
1.06,2076,2076,47213,9919.7119140625,19201.869140625,-3.770913373419659,-7.17545849868546,0.0,-0.01025390625,0.9814453125,-0.14453125,1.40380859375,1.64794921875,0.8544921875,-4577.0,-2064.0,114.0,88.1158447265625,4.9603271484375,-113.6590576171875,3.49,0.0,0.02197265625,0.98486328125,-0.205078125,1.28173828125,-1.15966796875,-0.79345703125,-967.0,-1404.0,6811.0,101.7828369140625,-1.0491943359375,-171.573486328125,3.55,0.0,0.00146484375,0.93798828125,0.34619140625,-2.01416015625,-0.244140625,1.0986328125,2327.0,-303.0,-4623.0,70.433349609375,-0.186767578125,30.706787109375,3.57
1.0605,2077,2077,47213,9920.4326171875,19208.119140625,-3.8078322949005363,-1.757473895678972,0.49999999999994493,-0.010428292410714269,0.9816196986607143,-0.1444614955357143,1.4212472098214268,1.6523088727678568,0.8675711495535702,-4575.714285714286,-2063.285714285714,115.35714285714273,88.1158447265625,4.960719517299111,-113.6590576171875,3.49,0.49999999999994493,0.022038535466269833,0.9847586495535714,-0.205078125,1.2788318452380956,-1.1756533668154745,-0.7920038132440478,-967.547619047619,-1403.7380952380952,6812.142857142857,101.78383963448664,-1.0518973214285836,-171.5749250139509,3.5500793650793647,0.49999999999994493,0.0015869140624999866,0.937744140625,0.345947265625,-1.9989013671875018,-0.244140625,1.0986328125,2329.9999999999995,-301.0000000000002,-4620.0,70.433349609375,-0.186767578125,30.70404052734375,3.5675000000000003
1.061,2078,2078,47214,9921.875,19214.611328125,-3.237347535805269,3.1899841205292727,0.9999999999998899,-0.010602678571428539,0.9817940848214285,-0.14439174107142858,1.4386858258928539,1.6566685267857135,0.8806501116071404,-4574.428571428572,-2062.571428571429,116.71428571428545,88.1158447265625,4.961111886160722,-113.6590576171875,3.49,0.9999999999998899,0.022104414682539666,0.9846540178571429,-0.205078125,1.2759254092261911,-1.191638764880949,-0.7905505952380956,-968.095238095238,-1403.4761904761906,6813.285714285714,101.78484235491072,-1.0546003069196388,-171.57636369977678,3.55015873015873,0.9999999999998899,0.001708984374999973,0.9375,0.34570312500000006,-1.9836425781250033,-0.244140625,1.0986328125,2332.9999999999995,-299.00000000000045,-4617.000000000001,70.433349609375,-0.186767578125,30.7012939453125,3.5650000000000004
1.0615,2079,2079,47214,9924.1591796875,19216.533203125,-0.8875538046834439,0.6118954579429126,1.5000000000000568,-0.010777064732142884,0.9819684709821429,-0.14432198660714285,1.4561244419642885,1.661028180803572,0.8937290736607164,-4573.142857142857,-2061.8571428571427,118.07142857142878,88.1158447265625,4.961504255022334,-113.6590576171875,3.49,1.5000000000000568,0.02217029389880953,0.9845493861607143,-0.205078125,1.2730189732142854,-1.2076241629464304,-0.7890973772321427,-968.6428571428572,-1403.2142857142858,6814.428571428572,101.7858450753348,-1.0573032924107224,-171.57780238560267,3.550238095238095,0.49999999999994493,0.0018310546875000134,0.937255859375,0.345458984375,-1.9683837890624982,-0.244140625,1.0986328125,2336.0000000000005,-296.9999999999998,-4614.0,70.433349609375,-0.186767578125,30.69854736328125,3.5624999999999996
1.062,2080,2080,47215,9926.322265625,19208.359375,-1.5971718259434335,-9.912172391814865,2.0000000000000018,-0.010951450892857154,0.9821428571428572,-0.14425223214285715,1.4735630580357153,1.6653878348214288,0.9068080357142866,-4571.857142857143,-2061.142857142857,119.42857142857152,88.1158447265625,4.961896623883916,-113.6590576171875,3.49,2.0000000000000018,0.022236173115079364,0.9844447544642857,-0.205078125,1.270112537202381,-1.2236095610119049,-0.7876441592261905,-969.1904761904761,-1402.952380952381,6815.571428571428,101.78684779575894,-1.0600062779017776,-171.57924107142858,3.5503174603174603,0.0,0.001953125,0.93701171875,0.34521484375,-1.953125,-0.244140625,1.0986328125,2339.0,-295.0,-4611.0,70.433349609375,-0.186767578125,30.69580078125,3.56
1.0625,2081,2081,47215,9927.404296875,19196.458984375,-0.6797983207068281,-21.113417134598677,2.4999999999999467,-0.011125837053571423,0.9823172433035714,-0.14418247767857142,1.4910016741071423,1.6697474888392856,0.9198869977678568,-4570.571428571428,-2060.4285714285716,120.78571428571425,88.1158447265625,4.962288992745528,-113.6590576171875,3.49,2.4999999999999467,0.0223020523313492,0.9843401227678572,-0.205078125,1.2672061011904765,-1.2395949590773794,-0.7861909412202382,-969.7380952380952,-1402.6904761904761,6816.714285714285,101.78785051618303,-1.0627092633928612,-171.58067975725447,3.550396825396825,0.49999999999994493,0.001988002232142854,0.9369070870535714,0.3451450892857143,-1.9749232700892836,-0.21362304687500291,1.0899135044642865,2338.214285714286,-295.5714285714285,-4613.285714285714,70.43295724051339,-0.186767578125,30.69580078125,3.56
1.063,2082,2082,47216,9925.1201171875,19193.57421875,-2.821768664757645,-21.54081144930642,2.9999999999998916,-0.011300223214285691,0.9824916294642857,-0.14411272321428573,1.5084402901785692,1.6741071428571423,0.9329659598214269,-4569.285714285715,-2059.714285714286,122.14285714285697,88.1158447265625,4.962681361607139,-113.6590576171875,3.49,2.9999999999998916,0.022367931547619034,0.9842354910714286,-0.205078125,1.264299665178572,-1.2555803571428537,-0.784737723214286,-970.2857142857142,-1402.4285714285716,6817.857142857142,101.78885323660711,-1.0654122488839164,-171.58211844308036,3.55047619047619,0.9999999999998899,0.0020228794642857075,0.9368024553571429,0.3450753348214286,-1.9967215401785672,-0.18310546875000583,1.0811941964285732,2337.4285714285716,-296.14285714285705,-4615.571428571428,70.43256487165178,-0.186767578125,30.69580078125,3.56
1.0635000000000001,2083,2083,47216,9925.3603515625,19193.21484375,-3.941714467436867,-18.317716842286767,3.4999999999998366,-0.011474609375000038,0.982666015625,-0.14404296874999997,1.5258789062500038,1.6784667968750009,0.9460449218750029,-4568.0,-2059.0,123.5000000000003,88.1158447265625,4.96307373046875,-113.6590576171875,3.49,3.5000000000000586,0.0224338107638889,0.984130859375,-0.205078125,1.2613932291666663,-1.2715657552083353,-0.7832845052083331,-970.8333333333334,-1402.1666666666667,6819.0,101.78985595703125,-1.068115234375,-171.58355712890625,3.5505555555555555,1.5000000000000568,0.002057756696428577,0.9366978236607143,0.34500558035714285,-2.0185198102678608,-0.15258789062499517,1.0724748883928557,2336.642857142857,-296.7142857142858,-4617.857142857143,70.4321725027902,-0.186767578125,30.69580078125,3.56
1.064,2084,2084,47217,9926.5634765625,19192.1328125,-3.7921158369871675,-16.11124934696612,2.9999999999998916,-0.011648995535714309,0.9828404017857143,-0.14397321428571427,1.5433175223214308,1.6828264508928577,0.9591238839285731,-4566.714285714285,-2058.285714285714,124.85714285714303,88.1158447265625,4.963466099330361,-113.6590576171875,3.49,4.0000000000000036,0.022499689980158732,0.9840262276785714,-0.205078125,1.2584867931547619,-1.2875511532738098,-0.7818312872023809,-971.3809523809524,-1401.904761904762,6820.142857142857,101.79085867745539,-1.0708182198660836,-171.58499581473214,3.5506349206349204,2.0000000000000018,0.0020926339285714307,0.9365931919642857,0.34493582589285715,-2.040318080357144,-0.12207031249999806,1.0637555803571423,2335.8571428571427,-297.28571428571433,-4620.142857142857,70.43178013392856,-0.186767578125,30.69580078125,3.56
1.0645,2085,2085,47217,9925.2412109375,19197.662109375,-6.269137335700548,-10.098945971317669,2.4999999999999467,-0.011823381696428577,0.9830147879464286,-0.14390345982142858,1.5607561383928577,1.6871861049107144,0.9722028459821432,-4565.428571428572,-2057.5714285714284,126.21428571428575,88.1158447265625,4.963858468191972,-113.6590576171875,3.49,4.4999999999999485,0.022565569196428565,0.9839215959821429,-0.205078125,1.2555803571428574,-1.3035365513392843,-0.7803780691964287,-971.9285714285713,-1401.642857142857,6821.285714285714,101.79186139787947,-1.0735212053571388,-171.58643450055803,3.5507142857142857,2.4999999999999467,0.0021275111607142847,0.9364885602678571,0.34486607142857145,-2.062116350446428,-0.09155273437500097,1.0550362723214288,2335.0714285714284,-297.85714285714283,-4622.428571428572,70.43138776506697,-0.186767578125,30.69580078125,3.56
1.065,2086,2086,47218,9925.841796875,19192.1328125,-6.6965814403709665,-13.320809935382638,2.0000000000000018,-0.011997767857142846,0.9831891741071428,-0.14383370535714285,1.5781947544642847,1.6915457589285712,0.9852818080357135,-4564.142857142857,-2056.857142857143,127.57142857142848,88.1158447265625,4.964250837053584,-113.6590576171875,3.49,4.999999999999893,0.022631448412698398,0.9838169642857143,-0.205078125,1.252673921130953,-1.3195219494047585,-0.7789248511904765,-972.4761904761904,-1401.3809523809525,6822.428571428572,101.79286411830356,-1.0762241908482224,-171.58787318638392,3.5507936507936506,2.9999999999998916,0.0021623883928571386,0.9363839285714286,0.3447963169642857,-2.0839146205357117,-0.061035156250003886,1.0463169642857153,2334.285714285714,-298.42857142857133,-4624.714285714285,70.43099539620536,-0.186767578125,30.69580078125,3.56
1.0655000000000001,2087,2087,47218,9928.966796875,19186.724609375,-4.922408075219824,-14.538754406033037,1.4999999999998348,-0.012172154017857192,0.9833635602678572,-0.14376395089285712,1.5956333705357193,1.6959054129464297,0.9983607700892895,-4562.857142857142,-2056.142857142857,128.92857142857181,88.1158447265625,4.964643205915166,-113.6590576171875,3.49,5.50000000000006,0.022697327628968263,0.9837123325892857,-0.205078125,1.2497674851190472,-1.3355073474702401,-0.7774716331845236,-973.0238095238096,-1401.1190476190475,6823.571428571428,101.7938668387277,-1.0789271763392776,-171.58931187220983,3.5508730158730155,3.4999999999998366,0.002197265625000008,0.936279296875,0.3447265625,-2.105712890625005,-0.030517578124993228,1.037597656249998,2333.5,-299.0000000000001,-4627.000000000001,70.43060302734375,-0.186767578125,30.69580078125,3.56
1.066,2088,2088,47219,9928.6064453125,19179.390625,-5.41725805058433,-16.88465518623726,0.9999999999998899,-0.012346540178571463,0.9835379464285715,-0.14369419642857142,1.6130719866071461,1.7002650669642865,1.0114397321428596,-4561.571428571428,-2055.428571428571,130.28571428571453,88.1158447265625,4.965035574776778,-113.6590576171875,3.49,6.000000000000005,0.022763206845238096,0.9836077008928571,-0.205078125,1.2468610491071428,-1.3514927455357146,-0.7760184151785714,-973.5714285714286,-1400.857142857143,6824.714285714285,101.79486955915178,-1.0816301618303612,-171.59075055803572,3.550952380952381,2.9999999999998916,0.0022321428571428614,0.9361746651785714,0.3446568080357143,-2.1275111607142883,3.885780586188048e-15,1.0288783482142847,2332.714285714286,-299.57142857142867,-4629.285714285715,70.43021065848214,-0.186767578125,30.69580078125,3.56
1.0665,2089,2089,47219,9931.37109375,19181.07421875,-4.071395252681223,-12.492628435214007,0.49999999999994493,-0.012520926339285731,0.9837123325892857,-0.1436244419642857,1.6305106026785732,1.7046247209821432,1.0245186941964297,-4560.285714285714,-2054.714285714286,131.64285714285728,88.1158447265625,4.965427943638389,-113.6590576171875,3.49,6.49999999999995,0.02282908606150793,0.9835030691964286,-0.205078125,1.2439546130952384,-1.3674781436011891,-0.7745651971726192,-974.1190476190476,-1400.595238095238,6825.857142857143,101.79587227957586,-1.0843331473214164,-171.5921892438616,3.5510317460317458,2.4999999999999467,0.0022670200892857153,0.9360700334821429,0.34458705357142855,-2.149309430803572,0.030517578125000944,1.0201590401785712,2331.9285714285716,-300.14285714285717,-4631.571428571428,70.42981828962053,-0.186767578125,30.69580078125,3.56
1.067,2090,2090,47220,9929.6884765625,19182.03515625,-6.9878899410192865,-8.70141044073637,0.0,-0.0126953125,0.98388671875,-0.1435546875,1.64794921875,1.708984375,1.03759765625,-4559.0,-2054.0,133.0,88.1158447265625,4.9658203125,-113.6590576171875,3.49,6.999999999999895,0.022894965277777766,0.9833984375,-0.205078125,1.241048177083334,-1.3834635416666634,-0.773111979166667,-974.6666666666665,-1400.3333333333335,6827.0,101.796875,-1.0870361328125,-171.5936279296875,3.551111111111111,2.0000000000000018,0.0023018973214285693,0.9359654017857143,0.34451729910714285,-2.171107700892856,0.06103515624999806,1.0114397321428577,2331.1428571428573,-300.71428571428567,-4633.857142857143,70.42942592075894,-0.186767578125,30.69580078125,3.56
1.0675000000000001,2091,2091,47220,9930.4091796875,19183.837890625,-6.820795301220265,-4.988920992822431,0.500000000000167,-0.013113839285714418,0.9842354910714287,-0.14379882812500008,1.656668526785717,1.717703683035717,1.0593959263392927,-4558.571428571428,-2054.5,134.0000000000003,88.1158447265625,4.966997419084834,-113.65866524832589,3.49,7.500000000000062,0.022960844494047627,0.9832938058035714,-0.205078125,1.2381417410714282,-1.399448939732145,-0.7716587611607141,-975.2142857142858,-1400.0714285714284,6828.142857142857,101.79787772042414,-1.0897391183035836,-171.5950666155134,3.551190476190476,1.4999999999998348,0.0023367745535714385,0.9358607700892857,0.3444475446428571,-2.192905970982149,0.09155273437500872,1.0027204241071404,2330.3571428571427,-301.28571428571445,-4636.142857142858,70.4290335518973,-0.186767578125,30.69580078125,3.56
1.068,2092,2092,47221,9929.0869140625,19187.564453125,-8.057050642468566,-0.8010582904570485,1.000000000000112,-0.013532366071428652,0.9845842633928572,-0.14404296875000006,1.6653878348214302,1.7264229910714302,1.0811941964285756,-4558.142857142857,-2055.0,135.0000000000002,88.1158447265625,4.968174525669639,-113.65827287946429,3.49,8.000000000000007,0.023026723710317464,0.9831891741071429,-0.205078125,1.2352353050595237,-1.4154343377976195,-0.7702055431547619,-975.7619047619048,-1399.8095238095239,6829.285714285715,101.79888044084822,-1.0924421037946388,-171.59650530133928,3.551269841269841,0.9999999999998899,0.0023716517857142925,0.9357561383928571,0.3443777901785714,-2.214704241071433,0.12207031250000583,0.9940011160714269,2329.5714285714284,-301.85714285714295,-4638.428571428572,70.42864118303572,-0.186767578125,30.69580078125,3.56
1.0685,2093,2093,47221,9930.1689453125,19189.48828125,-8.003146048672178,1.8345817147769417,1.5000000000000568,-0.013950892857142884,0.9849330357142857,-0.14428710937500003,1.6741071428571435,1.7351422991071435,1.1029924665178585,-4557.714285714285,-2055.5,136.00000000000006,88.1158447265625,4.969351632254472,-113.65788051060268,3.49,8.499999999999952,0.023092602926587297,0.9830845424107143,-0.205078125,1.2323288690476193,-1.431419735863094,-0.7687523251488096,-976.3095238095237,-1399.547619047619,6830.428571428572,101.7998831612723,-1.0951450892857224,-171.59794398716517,3.5513492063492063,0.49999999999994493,0.002406529017857146,0.9356515066964286,0.3443080357142857,-2.236502511160716,0.1525878906250029,0.9852818080357134,2328.785714285714,-302.4285714285715,-4640.714285714286,70.42824881417411,-0.186767578125,30.69580078125,3.56
1.069,2094,2094,47222,9927.0439453125,19197.421875,-10.862833823863228,9.54232325027051,2.0000000000000018,-0.014369419642857116,0.9852818080357143,-0.14453124999999997,1.6828264508928565,1.7438616071428565,1.1247907366071415,-4557.285714285715,-2056.0,136.99999999999994,88.1158447265625,4.970528738839278,-113.65748814174107,3.49,8.999999999999897,0.02315848214285713,0.9829799107142857,-0.205078125,1.2294224330357149,-1.4474051339285685,-0.7672991071428574,-976.8571428571428,-1399.2857142857144,6831.571428571428,101.80088588169644,-1.0978480747767776,-171.59938267299108,3.551428571428571,0.0,0.00244140625,0.935546875,0.34423828125,-2.25830078125,0.18310546875,0.9765625,2328.0,-303.0,-4643.0,70.4278564453125,-0.186767578125,30.69580078125,3.56
1.0695000000000001,2095,2095,47222,9929.3271484375,19197.541015625,-8.675032862206542,9.654028362654257,2.5000000000001688,-0.014787946428571536,0.9856305803571429,-0.14477539062500006,1.6915457589285736,1.7525809151785736,1.1465890066964342,-4556.857142857143,-2056.5,138.00000000000026,88.1158447265625,4.971705845424111,-113.65709577287946,3.49,9.500000000000064,0.023224361359126994,0.9828752790178571,-0.205078125,1.226515997023809,-1.46339053199405,-0.7658458891369045,-977.404761904762,-1399.0238095238094,6832.714285714286,101.80188860212053,-1.1005510602678612,-171.60082135881697,3.5515079365079365,0.500000000000167,0.0024065290178571317,0.935546875,0.34423828125,-2.275739397321434,0.2005440848214341,0.9809221540178585,2328.285714285714,-303.64285714285734,-4643.357142857143,70.4278564453125,-0.186767578125,30.69580078125,3.56
1.07,2096,2096,47223,9930.4091796875,19196.8203125,-7.849826701663109,7.684754469940804,3.0000000000001137,-0.015206473214285768,0.9859793526785715,-0.14501953125000003,1.700265066964287,1.761300223214287,1.168387276785717,-4556.428571428572,-2057.0,139.0000000000001,88.1158447265625,4.972882952008916,-113.65670340401786,3.49,10.000000000000009,0.023290240575396828,0.9827706473214286,-0.205078125,1.2236095610119047,-1.4793759300595244,-0.7643926711309523,-977.952380952381,-1398.7619047619048,6833.857142857143,101.80289132254461,-1.1032540457589164,-171.60226004464286,3.5515873015873014,1.000000000000112,0.002371651785714279,0.935546875,0.34423828125,-2.2931780133928603,0.21798270089286045,0.9852818080357151,2328.5714285714284,-304.2857142857144,-4643.714285714286,70.4278564453125,-0.186767578125,30.69580078125,3.56
1.0705,2097,2097,47223,9930.5302734375,19197.662109375,-6.910816038579865,7.598014590265583,3.5000000000000586,-0.015625,0.986328125,-0.145263671875,1.708984375,1.77001953125,1.190185546875,-4556.0,-2057.5,140.0,88.1158447265625,4.97406005859375,-113.65631103515625,3.49,10.499999999999954,0.02335611979166666,0.982666015625,-0.205078125,1.2207031250000002,-1.495361328124999,-0.7629394531250001,-978.5,-1398.5,6835.0,101.80389404296875,-1.10595703125,-171.60369873046875,3.5516666666666663,1.5000000000000568,0.0023367745535714263,0.935546875,0.34423828125,-2.310616629464287,0.2354213169642868,0.9896414620535717,2328.8571428571427,-304.92857142857144,-4644.071428571428,70.4278564453125,-0.186767578125,30.69580078125,3.56
1.071,2098,2098,47224,9931.0107421875,19193.57421875,-7.089328487412879,3.9327201586503504,3.0000000000001137,-0.016043526785714232,0.9866768973214285,-0.14550781249999997,1.717703683035713,1.778738839285713,1.211983816964283,-4555.571428571428,-2058.0,140.9999999999999,88.1158447265625,4.975237165178584,-113.65591866629464,3.49,10.999999999999899,0.023421999007936498,0.9825613839285714,-0.205078125,1.2177966889880958,-1.5113467261904732,-0.7614862351190479,-979.0476190476189,-1398.2380952380952,6836.142857142857,101.80489676339289,-1.1086600167410836,-171.60513741629464,3.5517460317460317,2.0000000000000018,0.0023018973214285737,0.935546875,0.34423828125,-2.328055245535713,0.2528599330357132,0.9940011160714283,2329.1428571428573,-305.57142857142856,-4644.428571428572,70.4278564453125,-0.186767578125,30.69580078125,3.56
1.0715000000000001,2099,2099,47224,9933.775390625,19188.646484375,-5.491915863312584,0.9503882374560091,2.4999999999999467,-0.01646205357142865,0.9870256696428572,-0.14575195312500006,1.7264229910714302,1.7874581473214302,1.2337820870535756,-4555.142857142857,-2058.5,142.0000000000002,88.1158447265625,4.976414271763389,-113.65552629743304,3.49,11.500000000000066,0.02348787822420636,0.9824567522321428,-0.205078125,1.21489025297619,-1.5273321242559548,-0.760033017113095,-979.5952380952382,-1397.9761904761904,6837.285714285715,101.80589948381697,-1.1113630022321388,-171.60657610212053,3.5518253968253966,2.5000000000001688,0.0022670200892857054,0.935546875,0.34423828125,-2.3454938616071472,0.2702985491071473,0.9983607700892868,2329.4285714285716,-306.2142857142859,-4644.785714285715,70.4278564453125,-0.186767578125,30.69580078125,3.56
1.072,2100,2100,47225,9934.8564453125,19186.001953125,-6.076465203592803,1.231723799453275,2.0000000000000018,-0.016880580357142884,0.9873744419642857,-0.14599609375000003,1.7351422991071435,1.7961774553571435,1.2555803571428585,-4554.714285714285,-2059.0,143.00000000000006,88.1158447265625,4.977591378348222,-113.65513392857143,3.49,12.00000000000001,0.023553757440476192,0.9823521205357143,-0.205078125,1.2119838169642856,-1.5433175223214293,-0.7585797991071428,-980.1428571428571,-1397.7142857142858,6838.428571428572,101.80690220424106,-1.1140659877232224,-171.60801478794642,3.551904761904762,3.0000000000001137,0.0022321428571428527,0.935546875,0.34423828125,-2.362932477678574,0.2877371651785736,1.0027204241071435,2329.714285714286,-306.85714285714295,-4645.142857142857,70.4278564453125,-0.186767578125,30.69580078125,3.56
1.0725,2101,2101,47225,9935.2177734375,19185.28125,-6.22632143895727,1.194993721665556,1.5000000000000568,-0.017299107142857116,0.9877232142857143,-0.14624023437499997,1.7438616071428565,1.8048967633928565,1.2773786272321415,-4554.285714285715,-2059.5,143.99999999999994,88.1158447265625,4.978768484933028,-113.65474155970982,3.49,12.499999999999956,0.02361963665674603,0.9822474888392857,-0.205078125,1.2090773809523812,-1.5593029203869038,-0.7571265811011906,-980.6904761904761,-1397.452380952381,6839.571428571428,101.8079049246652,-1.1167689732142776,-171.60945347377233,3.551984126984127,3.5000000000000586,0.002197265625,0.935546875,0.34423828125,-2.38037109375,0.30517578125,1.007080078125,2330.0,-307.5,-4645.5,70.4278564453125,-0.186767578125,30.69580078125,3.56
1.073,2102,2102,47226,9934.9775390625,19188.166015625,-7.223139395658149,2.091447534696606,1.000000000000112,-0.01771763392857135,0.9880719866071428,-0.14648437499999994,1.7525809151785698,1.8136160714285698,1.2991768973214244,-4553.857142857143,-2060.0,144.9999999999998,88.1158447265625,4.979945591517861,-113.65434919084821,3.49,12.9999999999999,0.02368551587301586,0.9821428571428572,-0.205078125,1.2061709449404767,-1.5752883184523783,-0.7556733630952384,-981.2380952380952,-1397.1904761904761,6840.714285714285,101.80890764508928,-1.1194719587053612,-171.61089215959822,3.5520634920634917,3.0000000000001137,0.0021623883928571473,0.935546875,0.34423828125,-2.397809709821426,0.3226143973214264,1.0114397321428565,2330.285714285714,-308.14285714285705,-4645.857142857143,70.4278564453125,-0.186767578125,30.69580078125,3.56
1.0735000000000001,2103,2103,47226,9936.66015625,19191.771484375,-5.498199938057732,4.202390550887381,0.49999999999994493,-0.018136160714285768,0.9884207589285715,-0.14672851562500003,1.761300223214287,1.822335379464287,1.320975167410717,-4553.428571428572,-2060.5,146.0000000000001,88.1158447265625,4.981122698102666,-113.65395682198661,3.49,13.500000000000068,0.023751395089285726,0.9820382254464286,-0.205078125,1.203264508928571,-1.5912737165178596,-0.7542201450892855,-981.7857142857143,-1396.9285714285713,6841.857142857143,101.80991036551336,-1.1221749441964164,-171.6123308454241,3.552142857142857,2.4999999999999467,0.002127511160714279,0.935546875,0.34423828125,-2.4152483258928603,0.3400530133928604,1.015799386160715,2330.5714285714284,-308.7857142857144,-4646.214285714286,70.4278564453125,-0.186767578125,30.69580078125,3.56
1.074,2104,2104,47227,9933.6552734375,19198.744140625,-7.679578271759724,7.589307037112075,0.0,-0.0185546875,0.98876953125,-0.14697265625,1.77001953125,1.8310546875,1.3427734375,-4553.0,-2061.0,147.0,88.1158447265625,4.9822998046875,-113.653564453125,3.49,14.000000000000012,0.02381727430555556,0.98193359375,-0.205078125,1.2003580729166665,-1.6072591145833341,-0.7527669270833333,-982.3333333333334,-1396.6666666666667,6843.0,101.8109130859375,-1.1248779296875,-171.61376953125,3.552222222222222,2.0000000000000018,0.0020926339285714263,0.935546875,0.34423828125,-2.432686941964287,0.3574916294642868,1.0201590401785716,2330.8571428571427,-309.42857142857144,-4646.571428571428,70.4278564453125,-0.186767578125,30.69580078125,3.56
1.0745,2105,2105,47227,9933.2939453125,19204.392578125,-7.382120502793962,10.394679057145199,0.49999999999994493,-0.01865931919642856,0.989013671875,-0.1470424107142857,1.7613002232142865,1.8223353794642865,1.3427734375,-4552.5,-2061.285714285714,147.28571428571425,88.11545235770086,4.982692173549111,-113.653564453125,3.4907142857142857,14.499999999999957,0.023883153521825393,0.9818289620535714,-0.205078125,1.197451636904762,-1.6232445126488084,-0.751313709077381,-982.8809523809523,-1396.404761904762,6844.142857142857,101.81191580636164,-1.1275809151785836,-171.6152082170759,3.5523015873015873,1.5000000000000568,0.0020577566964285737,0.935546875,0.34423828125,-2.450125558035713,0.3749302455357132,1.0245186941964284,2331.1428571428573,-310.07142857142856,-4646.928571428572,70.4278564453125,-0.186767578125,30.69580078125,3.56
1.075,2106,2106,47228,9932.5732421875,19199.705078125,-8.11399279948703,8.328272443941577,0.9999999999998899,-0.018763950892857123,0.9892578125,-0.14711216517857142,1.7525809151785732,1.8136160714285732,1.3427734375,-4552.0,-2061.5714285714284,147.57142857142853,88.11505998883928,4.983084542410722,-113.653564453125,3.4914285714285715,14.999999999999902,0.023949032738095226,0.9817243303571429,-0.205078125,1.1945452008928577,-1.639229910714283,-0.7498604910714288,-983.4285714285713,-1396.142857142857,6845.285714285714,101.81291852678572,-1.1302839006696388,-171.61664690290178,3.552380952380952,1.000000000000112,0.002022879464285721,0.935546875,0.34423828125,-2.4675641741071397,0.3923688616071396,1.028878348214285,2331.4285714285716,-310.7142857142856,-4647.285714285714,70.4278564453125,-0.186767578125,30.69580078125,3.56
1.0755000000000001,2107,2107,47228,9933.5341796875,19200.06640625,-7.070979578211166,12.856860398036186,1.5000000000000568,-0.01886858258928573,0.989501953125,-0.14718191964285715,1.7438616071428557,1.8048967633928557,1.3427734375,-4551.5,-2061.857142857143,147.8571428571429,88.1146676199777,4.983476911272334,-113.653564453125,3.4921428571428574,15.50000000000007,0.02401491195436509,0.9816196986607143,-0.205078125,1.1916387648809519,-1.6552153087797645,-0.7484072730654759,-983.9761904761906,-1395.8809523809523,6846.428571428572,101.8139212472098,-1.1329868861607224,-171.61808558872767,3.5524603174603175,0.49999999999994493,0.0019880022321428527,0.935546875,0.34423828125,-2.485002790178574,0.4098074776785736,1.0332380022321435,2331.714285714286,-311.35714285714295,-4647.642857142857,70.4278564453125,-0.186767578125,30.69580078125,3.56
1.076,2108,2108,47229,9934.8564453125,19199.705078125,-4.739884487312576,13.063786811541936,2.0000000000000018,-0.01897321428571429,0.98974609375,-0.14725167410714285,1.7351422991071423,1.7961774553571423,1.3427734375,-4551.0,-2062.1428571428573,148.14285714285717,88.11427525111606,4.983869280133916,-113.653564453125,3.492857142857143,16.000000000000014,0.024080791170634924,0.9815150669642857,-0.205078125,1.1887323288690474,-1.671200706845239,-0.7469540550595237,-984.5238095238095,-1395.6190476190477,6847.571428571428,101.81492396763394,-1.1356898716517776,-171.61952427455358,3.5525396825396824,0.0,0.001953125,0.935546875,0.34423828125,-2.50244140625,0.42724609375,1.03759765625,2332.0,-312.0,-4648.0,70.4278564453125,-0.186767578125,30.69580078125,3.56
1.0765,2109,2109,47229,9935.337890625,19196.21875,-3.3621435514954454,9.527367486517804,2.4999999999999467,-0.019077845982142853,0.989990234375,-0.14732142857142858,1.7264229910714288,1.7874581473214288,1.3427734375,-4550.5,-2062.4285714285716,148.42857142857142,88.11388288225447,4.984261648995528,-113.653564453125,3.4935714285714288,16.499999999999957,0.02414667038690476,0.9814104352678571,-0.205078125,1.185825892857143,-1.6871861049107135,-0.7455008370535715,-985.0714285714286,-1395.357142857143,6848.714285714285,101.81592668805803,-1.1383928571428612,-171.62096296037947,3.5526190476190473,0.49999999999994493,0.0018484933035714385,0.935546875,0.34434291294642855,-2.5155203683035703,0.4228864397321433,1.0419573102678568,2334.642857142857,-310.71428571428584,-4649.285714285714,70.4278564453125,-0.186767578125,30.694623674665166,3.56
1.077,2110,2110,47230,9934.6162109375,19198.984375,-2.5378453003970427,8.7915161273127,2.9999999999998916,-0.019182477678571414,0.990234375,-0.14739118303571427,1.7177036830357153,1.7787388392857153,1.3427734375,-4550.0,-2062.714285714286,148.71428571428567,88.11349051339289,4.984654017857139,-113.653564453125,3.494285714285714,16.999999999999904,0.024212549603174593,0.9813058035714286,-0.205078125,1.1829194568452386,-1.703171502976188,-0.7440476190476193,-985.6190476190475,-1395.095238095238,6849.857142857143,101.81692940848211,-1.1410958426339164,-171.62240164620536,3.5526984126984127,0.9999999999998899,0.001743861607142877,0.935546875,0.3444475446428571,-2.5285993303571406,0.41852678571428653,1.0463169642857135,2337.2857142857138,-309.4285714285717,-4650.571428571428,70.4278564453125,-0.186767578125,30.69344656808036,3.56
1.0775000000000001,2111,2111,47230,9932.453125,19197.783203125,-4.014021192364058,4.155082088213638,3.4999999999998366,-0.019287109375000024,0.990478515625,-0.14746093750000003,1.708984374999998,1.770019531249998,1.3427734375,-4549.5,-2063.0,149.00000000000006,88.11309814453125,4.98504638671875,-113.653564453125,3.495,17.50000000000007,0.024278428819444454,0.981201171875,-0.205078125,1.1800130208333328,-1.7191569010416694,-0.7425944010416664,-986.1666666666667,-1394.8333333333333,6851.0,101.81793212890625,-1.143798828125,-171.62384033203125,3.5527777777777776,1.5000000000000568,0.001639229910714269,0.935546875,0.34455217633928575,-2.541678292410716,0.4141671316964279,1.050676618303572,2339.928571428572,-308.14285714285694,-4651.857142857143,70.4278564453125,-0.186767578125,30.692269461495528,3.56
1.078,2112,2112,47231,9932.5732421875,19201.02734375,-3.318153251090349,4.8659088293666946,2.9999999999998916,-0.019391741071428586,0.99072265625,-0.14753069196428573,1.7002650669642847,1.7613002232142847,1.3427734375,-4549.0,-2063.285714285714,149.28571428571433,88.11270577566961,4.985438755580361,-113.653564453125,3.495714285714286,18.000000000000014,0.02434430803571429,0.9810965401785714,-0.205078125,1.1771065848214284,-1.7351422991071437,-0.7411411830357142,-986.7142857142858,-1394.5714285714284,6852.142857142857,101.81893484933039,-1.1465018136160836,-171.62527901785714,3.552857142857143,2.0000000000000018,0.0015345982142857075,0.935546875,0.3446568080357143,-2.5547572544642865,0.4098074776785712,1.0550362723214288,2342.571428571429,-306.8571428571428,-4653.142857142857,70.4278564453125,-0.186767578125,30.691092354910722,3.56
1.0785,2113,2113,47231,9933.0537109375,19198.021484375,-0.9257183573758743,-0.19543850724408296,2.4999999999999467,-0.019496372767857147,0.990966796875,-0.14760044642857142,1.6915457589285712,1.7525809151785712,1.3427734375,-4548.5,-2063.5714285714284,149.57142857142858,88.11231340680803,4.985831124441972,-113.653564453125,3.4964285714285714,18.49999999999996,0.024410187251984124,0.9809919084821429,-0.205078125,1.174200148809524,-1.7511276971726182,-0.739687965029762,-987.2619047619047,-1394.3095238095239,6853.285714285715,101.81993756975447,-1.1492047991071388,-171.62671770368303,3.552936507936508,2.4999999999999467,0.0014299665178571462,0.935546875,0.34476143973214285,-2.5678362165178568,0.4054478236607144,1.0593959263392856,2345.214285714286,-305.5714285714286,-4654.428571428572,70.4278564453125,-0.186767578125,30.68991524832589,3.56
1.079,2114,2114,47232,9939.3046875,19199.583984375,4.404715823435226,0.24384750092442964,2.0000000000000018,-0.01960100446428571,0.9912109375,-0.14767020089285715,1.6828264508928577,1.7438616071428577,1.3427734375,-4548.0,-2063.8571428571427,149.85714285714283,88.11192103794644,4.986223493303584,-113.653564453125,3.4971428571428573,18.999999999999908,0.024476066468253958,0.9808872767857143,-0.205078125,1.1712937127976195,-1.7671130952380927,-0.7382347470238098,-987.8095238095237,-1394.047619047619,6854.428571428572,101.82094029017856,-1.1519077845982224,-171.62815638950892,3.5530158730158727,2.9999999999998916,0.0013253348214285847,0.935546875,0.3448660714285714,-2.580915178571427,0.4010881696428577,1.0637555803571423,2347.8571428571427,-304.28571428571445,-4655.714285714285,70.4278564453125,-0.186767578125,30.688738141741084,3.56
1.0795000000000001,2115,2115,47232,9943.2705078125,19192.494140625,6.906257305266223,-6.102029353586371,1.4999999999998348,-0.019705636160714315,0.9914550781250001,-0.14773995535714288,1.6741071428571404,1.7351422991071404,1.3427734375,-4547.5,-2064.1428571428573,150.14285714285722,88.1115286690848,4.986615862165166,-113.653564453125,3.497857142857143,19.50000000000007,0.024541945684523822,0.9807826450892857,-0.205078125,1.1683872767857137,-1.7830984933035743,-0.7367815290178569,-988.357142857143,-1393.7857142857142,6855.571428571428,101.8219430106027,-1.1546107700892776,-171.62959507533483,3.553095238095238,3.4999999999998366,0.0012207031249999768,0.935546875,0.344970703125,-2.593994140625003,0.39672851562499906,1.0681152343750009,2350.5000000000005,-302.9999999999997,-4657.0,70.4278564453125,-0.186767578125,30.68756103515625,3.56
1.08,2116,2116,47233,9944.833984375,19188.767578125,6.37873256931044,-7.384370264438071,0.9999999999998899,-0.019810267857142877,0.99169921875,-0.14780970982142858,1.6653878348214268,1.7264229910714268,1.3427734375,-4547.0,-2064.4285714285716,150.42857142857147,88.11113630022322,4.987008231026778,-113.653564453125,3.4985714285714287,20.000000000000018,0.024607824900793655,0.9806780133928571,-0.205078125,1.1654808407738093,-1.7990838913690488,-0.7353283110119047,-988.9047619047619,-1393.5238095238094,6856.714285714286,101.82294573102678,-1.1573137555803612,-171.63103376116072,3.553174603174603,2.9999999999998916,0.0011160714285714153,0.935546875,0.3450753348214286,-2.607073102678573,0.3923688616071423,1.0724748883928577,2353.1428571428573,-301.71428571428555,-4658.285714285715,70.4278564453125,-0.186767578125,30.686383928571416,3.56
1.0805,2117,2117,47233,9940.1455078125,19186.482421875,0.846157661606652,-8.155950675690143,0.49999999999994493,-0.01991489955357144,0.991943359375,-0.1478794642857143,1.6566685267857135,1.7177036830357135,1.3427734375,-4546.5,-2064.714285714286,150.71428571428575,88.11074393136164,4.987400599888389,-113.653564453125,3.4992857142857146,20.499999999999964,0.02467370411706349,0.9805733816964286,-0.205078125,1.1625744047619049,-1.8150692894345233,-0.7338750930059524,-989.452380952381,-1393.2619047619048,6857.857142857143,101.82394845145086,-1.1600167410714164,-171.6324724469866,3.5532539682539683,2.4999999999999467,0.0010114397321428538,0.935546875,0.34517996651785715,-2.6201520647321432,0.3880092075892856,1.0768345424107144,2355.785714285714,-300.4285714285714,-4659.571428571428,70.4278564453125,-0.186767578125,30.68520682198661,3.56
1.081,2118,2118,47234,9935.2177734375,19191.05078125,-3.809108594479579,-2.71644474325464,0.0,-0.02001953125,0.9921875,-0.14794921875,1.64794921875,1.708984375,1.3427734375,-4546.0,-2065.0,151.0,88.1103515625,4.98779296875,-113.653564453125,3.5,20.999999999999908,0.024739583333333322,0.98046875,-0.205078125,1.1596679687500004,-1.8310546874999978,-0.7324218750000002,-989.9999999999999,-1393.0,6859.0,101.824951171875,-1.1627197265625,-171.6339111328125,3.5533333333333332,2.0000000000000018,0.0009068080357142925,0.935546875,0.3452845982142857,-2.6332310267857135,0.3836495535714288,1.0811941964285712,2358.428571428571,-299.1428571428572,-4660.857142857143,70.4278564453125,-0.186767578125,30.684029715401778,3.56
1.0815000000000001,2119,2119,47234,9935.09765625,19193.935546875,-2.6479052303608013,-0.9885479471372104,0.500000000000167,-0.020263671875000076,0.9923270089285715,-0.14833286830357156,1.6130719866071317,1.6959054129464244,1.334054129464283,-4544.499999999999,-2065.0714285714284,152.1428571428575,88.10995919363836,4.988577706473222,-113.65317208426339,3.5,21.500000000000075,0.024805462549603186,0.9803641183035714,-0.205078125,1.1567615327380947,-1.8470400855654794,-0.7309686569940473,-990.5476190476192,-1392.7380952380952,6860.142857142858,101.82595389229914,-1.1654227120535836,-171.6353498186384,3.553412698412698,1.4999999999998348,0.0008021763392856843,0.935546875,0.3453892299107143,-2.6463099888392896,0.3792898995535702,1.0855538504464297,2361.0714285714294,-297.8571428571425,-4662.142857142858,70.4278564453125,-0.186767578125,30.682852608816972,3.56
1.082,2120,2120,47235,9934.6162109375,19180.47265625,-3.741504996099313,-11.179957948390427,1.000000000000112,-0.020507812500000045,0.9924665178571429,-0.14871651785714293,1.5781947544642791,1.6828264508928545,1.3253348214285698,-4543.0,-2065.1428571428573,153.2857142857145,88.10956682477678,4.989362444196416,-113.65277971540179,3.5,22.00000000000002,0.02487134176587302,0.9802594866071428,-0.205078125,1.1538550967261902,-1.8630254836309534,-0.7295154389880951,-991.0952380952382,-1392.4761904761904,6861.285714285715,101.82695661272322,-1.1681256975446388,-171.63678850446428,3.5534920634920635,0.9999999999998899,0.000697544642857123,0.935546875,0.3454938616071429,-2.6593889508928594,0.37493024553571347,1.0899135044642865,2363.7142857142862,-296.5714285714283,-4663.428571428572,70.4278564453125,-0.186767578125,30.68167550223214,3.56
1.0825,2121,2121,47235,9936.66015625,19175.064453125,-0.2735058512287501,-11.843656123771522,1.5000000000000568,-0.020751953125000014,0.9926060267857143,-0.1491001674107143,1.5433175223214264,1.669747488839285,1.3166155133928565,-4541.5,-2065.214285714286,154.4285714285715,88.1091744559152,4.990147181919639,-113.65238734654018,3.5,22.499999999999964,0.024937220982142856,0.9801548549107143,-0.205078125,1.1509486607142858,-1.879010881696428,-0.7280622209821429,-991.6428571428571,-1392.2142857142858,6862.428571428572,101.8279593331473,-1.1708286830357224,-171.63822719029017,3.5535714285714284,0.49999999999994493,0.0005929129464285615,0.935546875,0.34559849330357145,-2.6724679129464297,0.3705705915178567,1.0942731584821432,2366.357142857143,-295.28571428571416,-4664.714285714286,70.4278564453125,-0.186767578125,30.680498395647334,3.56
1.083,2122,2122,47236,9930.048828125,19186.603515625,-3.819740025546284,0.886193234600082,2.0000000000000018,-0.020996093749999986,0.9927455357142857,-0.1494838169642857,1.5084402901785736,1.656668526785715,1.3078962053571435,-4540.0,-2065.285714285714,155.5714285714285,88.10878208705356,4.990931919642861,-113.65199497767857,3.5,22.999999999999908,0.02500310019841269,0.9800502232142857,-0.205078125,1.1480422247023814,-1.8949962797619024,-0.7266090029761907,-992.1904761904761,-1391.952380952381,6863.571428571428,101.82896205357144,-1.1735316685267776,-171.63966587611608,3.5536507936507937,0.0,0.00048828125,0.935546875,0.345703125,-2.685546875,0.3662109375,1.0986328125,2369.0,-294.0,-4666.0,70.4278564453125,-0.186767578125,30.6793212890625,3.56
1.0835000000000001,2123,2123,47236,9920.1923828125,19192.373046875,-10.567372804911798,7.042599158752955,2.5000000000001688,-0.021240234375000062,0.9928850446428572,-0.14986746651785723,1.4735630580357055,1.6435895647321395,1.2991768973214264,-4538.5,-2065.3571428571427,156.714285714286,88.10838971819197,4.991716657366084,-113.65160260881696,3.5,23.500000000000078,0.025068979414682554,0.9799455915178571,-0.205078125,1.1451357886904756,-1.910981677827384,-0.7251557849702378,-992.7380952380953,-1391.6904761904761,6864.714285714286,101.82996477399553,-1.1762346540178612,-171.64110456194197,3.5537301587301586,0.500000000000167,0.0004534040178571318,0.9356166294642857,0.34577287946428575,-2.676827566964283,0.35313197544642444,1.0942731584821415,2368.5714285714284,-294.42857142857156,-4667.0,70.42707170758928,-0.186767578125,30.6793212890625,3.56
1.084,2124,2124,47237,9921.2744140625,19178.30859375,-6.712362519808304,-4.035486788064523,3.0000000000001137,-0.02148437500000003,0.9930245535714286,-0.15025111607142863,1.4386858258928528,1.6305106026785698,1.290457589285713,-4537.0,-2065.4285714285716,157.857142857143,88.10799734933039,4.992501395089278,-113.65121023995536,3.5,24.00000000000002,0.025134858630952387,0.9798409598214286,-0.205078125,1.1422293526785712,-1.9269670758928585,-0.7237025669642856,-993.2857142857143,-1391.4285714285713,6865.857142857143,101.83096749441961,-1.1789376395089164,-171.64254324776786,3.5538095238095235,1.000000000000112,0.0004185267857142791,0.9356863839285714,0.34584263392857145,-2.66810825892857,0.34005301339285465,1.089913504464285,2368.142857142857,-294.85714285714295,-4668.0,70.42628696986606,-0.186767578125,30.6793212890625,3.56
1.0845,2125,2125,47237,9927.2841796875,19156.552734375,0.6734345297071833,-21.159188506925602,3.5000000000000586,-0.021728515625,0.9931640625,-0.150634765625,1.40380859375,1.617431640625,1.28173828125,-4535.5,-2065.5,159.0,88.10760498046875,4.9932861328125,-113.65081787109375,3.5,24.499999999999964,0.02520073784722222,0.979736328125,-0.205078125,1.1393229166666667,-1.942952473958333,-0.7222493489583334,-993.8333333333334,-1391.1666666666667,6867.0,101.83197021484375,-1.181640625,-171.64398193359375,3.553888888888889,1.5000000000000568,0.00038364955357142634,0.9357561383928571,0.34591238839285715,-2.6593889508928568,0.32697405133928487,1.0855538504464284,2367.714285714286,-295.28571428571433,-4669.0,70.42550223214286,-0.186767578125,30.6793212890625,3.56
1.085,2126,2126,47238,9929.568359375,19141.888671875,3.474059960005139,-26.324706845800254,3.0000000000001137,-0.02197265624999997,0.9933035714285714,-0.15101841517857137,1.3689313616071472,1.6043526785714302,1.273018973214287,-4534.0,-2065.5714285714284,160.142857142857,88.10721261160711,4.994070870535722,-113.65042550223214,3.5,24.99999999999991,0.025266617063492054,0.9796316964285714,-0.205078125,1.1364164806547623,-1.9589378720238073,-0.7207961309523812,-994.3809523809523,-1390.904761904762,6868.142857142857,101.83297293526789,-1.1843436104910836,-171.64542061941964,3.5539682539682538,2.0000000000000018,0.00034877232142857366,0.9358258928571429,0.34598214285714285,-2.6506696428571432,0.31389508928571513,1.0811941964285716,2367.285714285714,-295.71428571428567,-4670.0,70.42471749441964,-0.186767578125,30.6793212890625,3.56
1.0855,2127,2127,47238,9930.7705078125,19144.412109375,4.610723233067298,-15.170139699138641,2.5000000000001688,-0.022216796874999938,0.9934430803571428,-0.15140206473214277,1.3340541294642945,1.5912737165178605,1.2642996651785736,-4532.5,-2065.6428571428573,161.285714285714,88.10682024274553,4.994855608258916,-113.65003313337054,3.5,25.499999999999858,0.02533249627976189,0.9795270647321429,-0.205078125,1.1335100446428579,-1.9749232700892818,-0.7193429129464289,-994.9285714285713,-1390.642857142857,6869.285714285714,101.83397565569197,-1.1870465959821388,-171.64685930524553,3.554047619047619,2.4999999999999467,0.0003138950892857209,0.9358956473214286,0.34605189732142855,-2.64195033482143,0.30081612723214535,1.076834542410715,2366.857142857143,-296.14285714285705,-4671.0,70.42393275669644,-0.186767578125,30.6793212890625,3.56
1.086,2128,2128,47239,9933.8955078125,19142.0078125,8.459952257301138,-9.472248233650642,2.0000000000000018,-0.022460937500000014,0.9935825892857143,-0.1517857142857143,1.2991768973214264,1.578194754464285,1.2555803571428565,-4531.0,-2065.714285714286,162.4285714285715,88.10642787388394,4.995640345982139,-113.64964076450893,3.5,26.00000000000002,0.02539837549603175,0.9794224330357143,-0.205078125,1.130603608630952,-1.9909086681547634,-0.717889694940476,-995.4761904761905,-1390.3809523809523,6870.428571428572,101.83497837611606,-1.1897495814732224,-171.64829799107142,3.554126984126984,3.0000000000001137,0.0002790178571428527,0.9359654017857143,0.3461216517857143,-2.633231026785713,0.28773716517856973,1.0724748883928565,2366.4285714285716,-296.5714285714286,-4672.0,70.42314801897322,-0.186767578125,30.6793212890625,3.56
1.0865,2129,2129,47239,9939.4248046875,19141.767578125,12.37899248056775,-5.333769355664769,1.5000000000000568,-0.022705078124999986,0.9937220982142857,-0.1521693638392857,1.2642996651785736,1.565115792410715,1.2468610491071435,-4529.5,-2065.785714285714,163.5714285714285,88.1060355050223,4.996425083705361,-113.64924839564732,3.5,26.499999999999968,0.025464254712301584,0.9793178013392857,-0.205078125,1.1276971726190477,-2.0068940662202377,-0.7164364769345238,-996.0238095238095,-1390.1190476190477,6871.571428571428,101.8359810965402,-1.1924525669642776,-171.64973667689733,3.554206349206349,3.5000000000000586,0.000244140625,0.93603515625,0.34619140625,-2.62451171875,0.274658203125,1.068115234375,2366.0,-297.0,-4673.0,70.42236328125,-0.186767578125,30.6793212890625,3.56
1.087,2130,2130,47240,9951.5654296875,19142.970703125,21.198145844341177,0.009770751735310945,1.000000000000112,-0.022949218749999955,0.9938616071428571,-0.15255301339285707,1.2294224330357209,1.5520368303571455,1.2381417410714302,-4528.0,-2065.8571428571427,164.7142857142855,88.10564313616072,4.997209821428584,-113.64885602678571,3.5,26.999999999999915,0.02553013392857142,0.9792131696428572,-0.205078125,1.1247907366071432,-2.022879464285712,-0.7149832589285716,-996.5714285714286,-1389.857142857143,6872.714285714285,101.83698381696428,-1.1951555524553612,-171.65117536272322,3.5542857142857143,3.0000000000001137,0.00020926339285714726,0.9361049107142857,0.3462611607142857,-2.615792410714287,0.2615792410714302,1.0637555803571435,2365.5714285714284,-297.4285714285714,-4674.0,70.42157854352678,-0.186767578125,30.6793212890625,3.56
1.0875,2131,2131,47240,9958.8974609375,19143.5703125,24.17105453232423,3.683505522940378,0.500000000000167,-0.023193359374999924,0.9940011160714285,-0.15293666294642844,1.1945452008928683,1.5389578683035756,1.229422433035717,-4526.500000000001,-2065.9285714285716,165.8571428571425,88.10525076729914,4.997994559151778,-113.64846365792411,3.5,27.499999999999858,0.025596013144841254,0.9791085379464286,-0.205078125,1.1218843005952388,-2.0388648623511867,-0.7135300409226194,-997.1190476190475,-1389.595238095238,6873.857142857142,101.83798653738836,-1.1978585379464164,-171.6526140485491,3.554365079365079,2.5000000000001688,0.00017438616071429458,0.9361746651785714,0.3463309151785714,-2.607073102678574,0.24850027901786048,1.059395926339287,2365.1428571428573,-297.8571428571428,-4675.0,70.42079380580356,-0.186767578125,30.6793212890625,3.56
1.088,2132,2132,47241,9958.1767578125,19157.154296875,20.232675412587522,16.489128958805185,0.0,-0.0234375,0.994140625,-0.1533203125,1.15966796875,1.52587890625,1.220703125,-4525.0,-2066.0,167.0,88.1048583984375,4.998779296875,-113.6480712890625,3.5,28.000000000000025,0.02566189236111112,0.97900390625,-0.205078125,1.118977864583333,-2.0548502604166683,-0.7120768229166665,-997.6666666666667,-1389.3333333333333,6875.0,101.8389892578125,-1.2005615234375,-171.654052734375,3.5544444444444445,2.0000000000000018,0.00013950892857142634,0.9362444196428571,0.34640066964285715,-2.5983537946428568,0.23542131696428487,1.0550362723214284,2364.714285714286,-298.28571428571433,-4676.0,70.42000906808036,-0.186767578125,30.6793212890625,3.56
1.0885,2133,2133,47241,9954.5703125,19185.76171875,13.274240253389577,39.51896742857174,0.49999999999994493,-0.023716517857142832,0.9941755022321429,-0.15328543526785715,1.1247907366071461,1.4866420200892894,1.2163434709821432,-4525.142857142857,-2064.857142857143,167.49999999999994,88.10446602957586,4.999171665736611,-113.64846365792411,3.5,28.49999999999997,0.025727771577380952,0.9788992745535714,-0.205078125,1.1160714285714286,-2.070835658482143,-0.7106236049107143,-998.2142857142857,-1389.0714285714287,6876.142857142857,101.83999197823664,-1.2032645089285836,-171.6554914202009,3.5545238095238094,1.5000000000000568,0.00010463169642857366,0.9363141741071429,0.34647042410714285,-2.5896344866071432,0.22234235491071513,1.0506766183035716,2364.285714285714,-298.71428571428567,-4677.0,70.41922433035714,-0.186767578125,30.6793212890625,3.56
1.089,2134,2134,47242,9952.0458984375,19213.767578125,9.384129803589932,56.44278066338169,0.9999999999998899,-0.02399553571428566,0.9942103794642857,-0.1532505580357143,1.0899135044642922,1.447405133928579,1.2119838169642865,-4525.285714285715,-2063.714285714286,167.99999999999991,88.10407366071428,4.999564034598222,-113.64885602678571,3.5,28.999999999999915,0.025793650793650785,0.9787946428571429,-0.205078125,1.1131649925595242,-2.086821056547617,-0.7091703869047621,-998.7619047619047,-1388.8095238095239,6877.285714285714,101.84099469866072,-1.2059674944196388,-171.65693010602678,3.5546031746031743,1.000000000000112,6.975446428572092e-05,0.9363839285714286,0.34654017857142855,-2.58091517857143,0.20926339285714535,1.046316964285715,2363.857142857143,-299.14285714285705,-4678.0,70.41843959263394,-0.186767578125,30.6793212890625,3.56
1.0895,2135,2135,47242,9951.8056640625,19235.28515625,7.08122674200889,65.26500249714863,1.4999999999998348,-0.024274553571428492,0.9942452566964286,-0.15321568080357145,1.0550362723214386,1.4081682477678683,1.2076241629464297,-4525.428571428572,-2062.571428571429,168.49999999999986,88.1036812918527,4.999956403459834,-113.64924839564732,3.5,29.499999999999858,0.02585953000992062,0.9786900111607143,-0.205078125,1.1102585565476197,-2.1028064546130913,-0.7077171688988099,-999.3095238095236,-1388.547619047619,6878.428571428572,101.8419974190848,-1.2086704799107224,-171.65836879185267,3.5546825396825397,0.500000000000167,3.4877232142868186e-05,0.9364536830357143,0.34660993303571425,-2.572195870535717,0.19618443080357556,1.0419573102678585,2363.4285714285716,-299.57142857142844,-4679.0,70.41765485491072,-0.186767578125,30.6793212890625,3.56
1.09,2136,2136,47243,9949.1611328125,19241.416015625,3.3562528963978426,57.73237736125859,2.0000000000000018,-0.024553571428571445,0.9942801339285714,-0.15318080357142858,1.0201590401785692,1.3689313616071404,1.2032645089285712,-4525.571428571428,-2061.4285714285716,169.00000000000003,88.10328892299106,5.000348772321416,-113.64964076450893,3.5,30.00000000000003,0.025925409226190483,0.9785853794642857,-0.205078125,1.107352120535714,-2.118791852678573,-0.706263950892857,-999.8571428571429,-1388.2857142857142,6879.571428571428,101.84300013950894,-1.2113734654017776,-171.65980747767858,3.5547619047619046,0.0,0.0,0.9365234375,0.3466796875,-2.5634765625,0.18310546875,1.03759765625,2363.0,-300.0,-4680.0,70.4168701171875,-0.186767578125,30.6793212890625,3.56
1.0905,2137,2137,47243,9951.2041015625,19240.693359375,5.04654638241271,44.85939698018475,2.4999999999999467,-0.024832589285714277,0.9943150111607143,-0.15314592633928573,0.9852818080357154,1.3296944754464297,1.1989048549107144,-4525.714285714285,-2060.285714285714,169.49999999999997,88.10289655412947,5.000741141183028,-113.65003313337054,3.5,30.49999999999997,0.025991288442460316,0.9784807477678571,-0.205078125,1.1044456845238095,-2.1347772507440474,-0.7048107328869048,-1000.4047619047619,-1388.0238095238096,6880.714285714285,101.84400285993303,-1.2140764508928612,-171.66124616350447,3.55484126984127,0.49999999999994493,0.0,0.9365931919642857,0.34678431919642855,-2.5503976004464297,0.1656668526785731,1.03759765625,2362.9285714285716,-300.9999999999999,-4682.0,70.4168701171875,-0.186767578125,30.6793212890625,3.56
1.091,2138,2138,47244,9949.1611328125,19228.193359375,1.971042890560553,25.10211491834844,2.9999999999998916,-0.02511160714285711,0.9943498883928571,-0.15311104910714285,0.9504045758928615,1.2904575892857193,1.1945452008928577,-4525.857142857143,-2059.1428571428573,169.99999999999994,88.10250418526789,5.001133510044639,-113.65042550223214,3.5,30.999999999999915,0.026057167658730153,0.9783761160714286,-0.205078125,1.101539248511905,-2.150762648809522,-0.7033575148809526,-1000.9523809523808,-1387.7619047619048,6881.857142857143,101.84500558035711,-1.2167794363839164,-171.66268484933036,3.554920634920635,0.9999999999998899,0.0,0.9366629464285714,0.3468889508928571,-2.5373186383928594,0.14822823660714618,1.03759765625,2362.8571428571427,-301.99999999999983,-4684.0,70.4168701171875,-0.186767578125,30.6793212890625,3.56
1.0915,2139,2139,47244,9947.1181640625,19225.068359375,-1.014495204205799,16.68074057085472,3.4999999999998366,-0.025390624999999938,0.994384765625,-0.153076171875,0.9155273437500078,1.2512207031250087,1.1901855468750009,-4526.0,-2058.0000000000005,170.4999999999999,88.10211181640625,5.00152587890625,-113.65081787109375,3.5,31.49999999999986,0.026123046874999986,0.978271484375,-0.205078125,1.0986328125000007,-2.1667480468749964,-0.7019042968750003,-1001.4999999999999,-1387.5,6883.0,101.84600830078125,-1.219482421875,-171.66412353515625,3.5549999999999997,1.4999999999998348,0.0,0.9367327008928571,0.3469935825892857,-2.5242396763392896,0.13078962053571927,1.03759765625,2362.785714285714,-302.9999999999997,-4685.999999999999,70.4168701171875,-0.186767578125,30.6793212890625,3.56
1.092,2140,2140,47245,9949.4013671875,19223.986328125,-0.03770205417287009,11.200638492054395,2.9999999999998916,-0.02566964285714289,0.9944196428571429,-0.15304129464285715,0.8806501116071384,1.2119838169642807,1.1858258928571423,-4526.142857142857,-2056.8571428571427,171.00000000000006,88.10171944754461,5.001918247767861,-113.65121023995536,3.5,30.999999999999915,0.026188926091269847,0.9781668526785714,-0.205078125,1.095726376488095,-2.182733444940478,-0.7004510788690474,-1002.0476190476192,-1387.2380952380952,6884.142857142857,101.84701102120539,-1.2221854073660836,-171.66556222098214,3.555079365079365,2.0000000000000018,0.0,0.9368024553571429,0.3470982142857143,-2.5111607142857135,0.1133510044642846,1.03759765625,2362.714285714286,-304.00000000000006,-4688.0,70.4168701171875,-0.186767578125,30.6793212890625,3.56
1.0925,2141,2141,47245,9948.5595703125,19226.509765625,-0.942960939287719,7.376801585606691,2.4999999999999467,-0.025948660714285723,0.9944545200892857,-0.15300641741071427,0.8457728794642846,1.1727469308035703,1.1814662388392856,-4526.285714285715,-2055.714285714286,171.50000000000003,88.10132707868303,5.002310616629472,-113.65160260881696,3.5,30.49999999999997,0.026254805307539684,0.9780622209821429,-0.205078125,1.0928199404761905,-2.1987188430059526,-0.6989978608630952,-1002.5952380952381,-1386.9761904761904,6885.285714285715,101.84801374162947,-1.2248883928571388,-171.66700090680803,3.55515873015873,2.4999999999999467,0.0,0.9368722098214286,0.34720284598214285,-2.4980817522321432,0.09591238839285769,1.03759765625,2362.6428571428573,-304.99999999999994,-4690.0,70.4168701171875,-0.186767578125,30.6793212890625,3.56
1.093,2142,2142,47246,9946.876953125,19219.41796875,-2.556700924730972,-6.114816016169277,2.0000000000000018,-0.026227678571428555,0.9944893973214286,-0.15297154017857142,0.8108956473214308,1.1335100446428596,1.1771065848214288,-4526.428571428572,-2054.5714285714284,171.99999999999997,88.10093470982144,5.002702985491084,-113.65199497767857,3.5,30.00000000000003,0.026320684523809517,0.9779575892857143,-0.205078125,1.089913504464286,-2.214704241071427,-0.697544642857143,-1003.1428571428571,-1386.7142857142858,6886.428571428572,101.84901646205356,-1.2275913783482224,-171.66843959263392,3.5552380952380953,2.9999999999998916,0.0,0.9369419642857143,0.3473074776785714,-2.485002790178573,0.07847377232143078,1.03759765625,2362.5714285714284,-305.9999999999999,-4692.0,70.4168701171875,-0.186767578125,30.6793212890625,3.56
1.0935,2143,2143,47246,9949.1611328125,19212.56640625,-0.18026024447310718,-16.46557027453057,1.5000000000000568,-0.026506696428571383,0.9945242745535714,-0.15293666294642858,0.776018415178577,1.094273158482149,1.172746930803572,-4526.571428571428,-2053.4285714285716,172.49999999999991,88.1005423409598,5.003095354352666,-113.65238734654018,3.5,29.50000000000008,0.02638656374007935,0.9778529575892857,-0.205078125,1.0870070684523816,-2.2306896391369015,-0.6960914248511908,-1003.690476190476,-1386.452380952381,6887.571428571428,101.8500191824777,-1.2302943638392776,-171.66987827845983,3.55531746031746,3.4999999999998366,0.0,0.93701171875,0.347412109375,-2.471923828125003,0.06103515625000387,1.03759765625,2362.5,-306.9999999999998,-4694.0,70.4168701171875,-0.186767578125,30.6793212890625,3.56
1.094,2144,2144,47247,9950.4833984375,19204.75390625,1.882317626693668,-26.89156763077667,0.9999999999998899,-0.02678571428571434,0.9945591517857143,-0.1529017857142857,0.7411411830357076,1.055036272321421,1.1683872767857135,-4526.714285714285,-2052.285714285714,173.00000000000009,88.10014997209822,5.003487723214278,-113.65277971540179,3.5,28.999999999999915,0.026452442956349215,0.9777483258928571,-0.205078125,1.0841006324404758,-2.246675037202383,-0.6946382068452379,-1004.2380952380953,-1386.1904761904761,6888.714285714286,101.85102190290178,-1.2329973493303612,-171.67131696428572,3.5553968253968256,2.9999999999998916,0.0,0.9370814732142857,0.3475167410714286,-2.458844866071427,0.043596540178569204,1.03759765625,2362.4285714285716,-308.0000000000001,-4696.0,70.4168701171875,-0.186767578125,30.6793212890625,3.56
1.0945,2145,2145,47247,9944.833984375,19198.984375,-2.664191570890147,-32.16080154274122,0.49999999999994493,-0.027064732142857168,0.9945940290178571,-0.15286690848214285,0.7062639508928539,1.0157993861607104,1.1640276227678568,-4526.857142857143,-2051.142857142857,173.50000000000006,88.09975760323664,5.003880092075889,-113.65317208426339,3.5,28.49999999999997,0.026518322172619048,0.9776436941964286,-0.205078125,1.0811941964285714,-2.262660435267857,-0.6931849888392857,-1004.7857142857143,-1385.9285714285713,6889.857142857143,101.85202462332586,-1.2357003348214164,-171.6727556501116,3.5554761904761905,2.4999999999999467,0.0,0.9371512276785714,0.34762137276785715,-2.4457659040178568,0.026157924107142294,1.03759765625,2362.3571428571427,-309.00000000000006,-4698.0,70.4168701171875,-0.186767578125,30.6793212890625,3.56
1.095,2146,2146,47248,9942.0693359375,19193.21484375,-4.4807541985722725,-30.982575589045936,0.0,-0.02734375,0.99462890625,-0.15283203125,0.67138671875,0.9765625,1.15966796875,-4527.0,-2050.0,174.0,88.099365234375,5.0042724609375,-113.653564453125,3.5,28.000000000000025,0.02658420138888888,0.9775390625,-0.205078125,1.078287760416667,-2.278645833333332,-0.6917317708333335,-1005.3333333333333,-1385.6666666666667,6891.0,101.85302734375,-1.2384033203125,-171.6741943359375,3.5555555555555554,2.0000000000000018,0.0,0.9372209821428571,0.3477260044642857,-2.4326869419642865,0.008719308035715384,1.03759765625,2362.285714285714,-309.99999999999994,-4700.0,70.4168701171875,-0.186767578125,30.6793212890625,3.56
1.0955,2147,2147,47248,9942.7900390625,19196.21875,-3.1688726886183884,-21.59781918001522,0.49999999999994493,-0.027169363839285737,0.9945591517857143,-0.15286690848214285,0.6539481026785736,0.9547642299107171,1.1553083147321435,-4528.071428571428,-2049.714285714286,175.7142857142855,88.09858049665178,5.005057198660722,-113.65395682198661,3.5,27.500000000000078,0.026650080605158714,0.9774344308035714,-0.205078125,1.0753813244047625,-2.294631231398806,-0.6902785528273813,-1005.8809523809523,-1385.404761904762,6892.142857142857,101.85403006417414,-1.2411063058035836,-171.6756330217634,3.5556349206349207,1.5000000000000568,0.0,0.9372907366071428,0.34783063616071425,-2.419607979910716,-0.008719308035711526,1.03759765625,2362.214285714286,-310.99999999999983,-4702.0,70.4168701171875,-0.186767578125,30.6793212890625,3.56
