record_index,sequence,time_s,tick_ms,tick_elapsed_ms,device_id,accel_x_raw,accel_y_raw,accel_z_raw,accel_x_g,accel_y_g,accel_z_g,gyro_x_raw,gyro_y_raw,gyro_z_raw,gyro_x_dps,gyro_y_dps,gyro_z_dps,mag_x_raw,mag_y_raw,mag_z_raw,angle_x_raw,angle_y_raw,angle_z_raw,angle_x_deg,angle_y_deg,angle_z_deg,battery_raw,battery_voltage,sequence_gap_before
0,104520,0.0,288428,0,1,47,1984,-485,0.02294921875,0.96875,-0.23681640625,10,-3,2,0.6103515625,-0.18310546875,0.1220703125,-161,2442,5200,18762,-102,24204,103.062744140625,-0.560302734375,132.95654296875,357,3.57,0
1,104521,0.0,288428,0,2,-150,1898,781,-0.0732421875,0.9267578125,0.38134765625,-8,5,14,-0.48828125,0.30517578125,0.8544921875,970,2647,-3520,12300,745,67,67.56591796875,4.0924072265625,0.3680419921875,356,3.56,0
2,104522,0.002,288430,2,2,-152,1898,785,-0.07421875,0.9267578125,0.38330078125,-5,3,18,-0.30517578125,0.18310546875,1.0986328125,934,2633,-3535,12298,745,75,67.554931640625,4.0924072265625,0.4119873046875,355,3.55,0
3,104523,0.004,288432,4,0,-29,2010,-370,-0.01416015625,0.9814453125,-0.1806640625,-4,-16,2,-0.244140625,-0.9765625,0.1220703125,-4257,2629,-1364,18372,283,-31111,100.92041015625,1.5545654296875,-170.8978271484375,349,3.49,0
4,104524,0.005,288433,5,1,30,1989,-458,0.0146484375,0.97119140625,-0.2236328125,-5,-9,-4,-0.30517578125,-0.54931640625,-0.244140625,-265,2439,5295,18763,-104,24205,103.0682373046875,-0.5712890625,132.9620361328125,357,3.57,0
5,104525,0.006,288434,6,2,-152,1897,785,-0.07421875,0.92626953125,0.38330078125,-4,1,18,-0.244140625,0.06103515625,1.0986328125,935,2631,-3545,12298,745,82,67.554931640625,4.0924072265625,0.450439453125,355,3.55,0
6,104526,0.011,288439,11,0,-28,2006,-366,-0.013671875,0.9794921875,-0.1787109375,-12,-20,2,-0.732421875,-1.220703125,0.1220703125,-4269,2595,-1348,18372,283,-31111,100.92041015625,1.5545654296875,-170.8978271484375,349,3.49,0
7,104527,0.012,288440,12,1,32,1983,-460,0.015625,0.96826171875,-0.224609375,-8,-10,-2,-0.48828125,-0.6103515625,-0.1220703125,-235,2456,5294,18763,-104,24205,103.0682373046875,-0.5712890625,132.9620361328125,357,3.57,0
8,104528,0.013,288441,13,2,-152,1891,783,-0.07421875,0.92333984375,0.38232421875,-2,0,15,-0.1220703125,0.0,0.91552734375,951,2644,-3528,12297,745,82,67.5494384765625,4.0924072265625,0.450439453125,355,3.55,0
9,104529,0.018,288446,18,0,-27,2005,-368,-0.01318359375,0.97900390625,-0.1796875,-15,-20,5,-0.91552734375,-1.220703125,0.30517578125,-4286,2615,-1383,18371,282,-31110,100.9149169921875,1.549072265625,-170.892333984375,349,3.49,0
10,104530,0.02,288448,20,2,-152,1888,784,-0.07421875,0.921875,0.3828125,-2,-1,15,-0.1220703125,-0.06103515625,0.91552734375,955,2638,-3529,12297,745,82,67.5494384765625,4.0924072265625,0.450439453125,355,3.55,0
11,104531,0.025,288453,25,0,-27,2005,-368,-0.01318359375,0.97900390625,-0.1796875,-15,-20,5,-0.91552734375,-1.220703125,0.30517578125,-4286,2615,-1383,18371,282,-31110,100.9149169921875,1.549072265625,-170.892333984375,349,3.49,0
12,104532,0.026,288454,26,1,45,1977,-462,0.02197265625,0.96533203125,-0.2255859375,-6,1,2,-0.3662109375,0.06103515625,0.1220703125,-213,2456,5189,18763,-104,24205,103.0682373046875,-0.5712890625,132.9620361328125,357,3.57,0
13,104533,0.027,288455,27,2,-151,1883,784,-0.07373046875,0.91943359375,0.3828125,1,-3,13,0.06103515625,-0.18310546875,0.79345703125,951,2666,-3521,12297,745,90,67.5494384765625,4.0924072265625,0.494384765625,355,3.55,0
14,104534,0.032,288460,32,0,-26,2005,-374,-0.0126953125,0.97900390625,-0.1826171875,-18,-15,7,-1.0986328125,-0.91552734375,0.42724609375,-4279,2596,-1325,18371,282,-31110,100.9149169921875,1.549072265625,-170.892333984375,349,3.49,0
15,104535,0.033,288461,33,1,45,1975,-468,0.02197265625,0.96435546875,-0.228515625,-4,-1,1,-0.244140625,-0.06103515625,0.06103515625,-195,2447,5202,18763,-104,24205,103.0682373046875,-0.5712890625,132.9620361328125,357,3.57,0
16,104536,0.034,288462,34,2,-150,1883,784,-0.0732421875,0.91943359375,0.3828125,1,-3,12,0.06103515625,-0.18310546875,0.732421875,972,2642,-3533,12296,745,90,67.5439453125,4.0924072265625,0.494384765625,355,3.55,0
17,104537,0.039,288467,39,0,-28,2006,-377,-0.013671875,0.9794921875,-0.18408203125,-15,-12,7,-0.91552734375,-0.732421875,0.42724609375,-4264,2589,-1288,18370,281,-31109,100.909423828125,1.5435791015625,-170.8868408203125,349,3.49,0
18,104538,0.04,288468,40,1,45,1973,-472,0.02197265625,0.96337890625,-0.23046875,1,-8,7,0.06103515625,-0.48828125,0.42724609375,-185,2419,5136,18763,-105,24206,103.0682373046875,-0.5767822265625,132.967529296875,357,3.57,0
19,104539,0.041,288469,41,2,-149,1883,783,-0.07275390625,0.91943359375,0.38232421875,-1,-2,11,-0.06103515625,-0.1220703125,0.67138671875,955,2653,-3533,12296,745,90,67.5439453125,4.0924072265625,0.494384765625,355,3.55,0
20,104540,0.046,288474,46,0,-30,2009,-378,-0.0146484375,0.98095703125,-0.1845703125,-16,-3,7,-0.9765625,-0.18310546875,0.42724609375,-4249,2587,-1289,18370,281,-31109,100.909423828125,1.5435791015625,-170.8868408203125,349,3.49,0
21,104541,0.047,288475,47,1,44,1969,-475,0.021484375,0.96142578125,-0.23193359375,1,-12,3,0.06103515625,-0.732421875,0.18310546875,-166,2429,5199,18763,-105,24206,103.0682373046875,-0.5767822265625,132.967529296875,357,3.57,0
22,104542,0.048,288476,48,2,-146,1884,780,-0.0712890625,0.919921875,0.380859375,-8,-1,9,-0.48828125,-0.06103515625,0.54931640625,968,2663,-3584,12296,745,97,67.5439453125,4.0924072265625,0.5328369140625,355,3.55,0
23,104543,0.053,288481,53,0,-30,2005,-383,-0.0146484375,0.97900390625,-0.18701171875,-18,1,10,-1.0986328125,0.06103515625,0.6103515625,-4238,2587,-1277,18370,281,-31109,100.909423828125,1.5435791015625,-170.8868408203125,349,3.49,0
24,104544,0.054,288482,54,1,42,1972,-475,0.0205078125,0.962890625,-0.23193359375,3,-17,0,0.18310546875,-1.03759765625,0.0,-131,2439,5188,18763,-106,24206,103.0682373046875,-0.582275390625,132.967529296875,357,3.57,0
25,104545,0.055,288483,55,2,-144,1883,779,-0.0703125,0.91943359375,0.38037109375,-10,1,8,-0.6103515625,0.06103515625,0.48828125,967,2660,-3561,12296,745,97,67.5439453125,4.0924072265625,0.5328369140625,355,3.55,0
26,104546,0.06,288488,60,0,-30,2005,-383,-0.0146484375,0.97900390625,-0.18701171875,-18,1,10,-1.0986328125,0.06103515625,0.6103515625,-4238,2587,-1277,18370,281,-31109,100.909423828125,1.5435791015625,-170.8868408203125,349,3.49,0
27,104547,0.061,288489,61,1,44,1976,-481,0.021484375,0.96484375,-0.23486328125,5,-18,-1,0.30517578125,-1.0986328125,-0.06103515625,-109,2426,5176,18763,-106,24206,103.0682373046875,-0.582275390625,132.967529296875,357,3.57,0
28,104548,0.062,288490,62,2,-141,1881,779,-0.06884765625,0.91845703125,0.38037109375,-10,3,7,-0.6103515625,0.18310546875,0.42724609375,933,2682,-3573,12296,745,104,67.5439453125,4.0924072265625,0.5712890625,355,3.55,0
29,104549,0.073,288501,73,0,-34,1998,-391,-0.0166015625,0.9755859375,-0.19091796875,-16,4,8,-0.9765625,0.244140625,0.48828125,-4228,2613,-1292,18369,280,-31108,100.9039306640625,1.5380859375,-170.88134765625,348,3.48,0
30,104550,0.073,288501,73,1,48,1982,-482,0.0234375,0.9677734375,-0.2353515625,5,-17,1,0.30517578125,-1.03759765625,0.06103515625,-113,2425,5194,18763,-106,24206,103.0682373046875,-0.582275390625,132.967529296875,357,3.57,0
31,104551,0.073,288501,73,2,-140,1881,779,-0.068359375,0.91845703125,0.38037109375,-8,5,6,-0.48828125,0.30517578125,0.3662109375,942,2701,-3539,12296,745,104,67.5439453125,4.0924072265625,0.5712890625,355,3.55,0
32,104552,0.074,288502,74,0,-36,1999,-392,-0.017578125,0.97607421875,-0.19140625,-14,-1,5,-0.8544921875,-0.06103515625,0.30517578125,-4251,2607,-1298,18369,280,-31108,100.9039306640625,1.5380859375,-170.88134765625,348,3.48,0
33,104553,0.075,288503,75,1,48,1988,-476,0.0234375,0.970703125,-0.232421875,-1,-17,-6,-0.06103515625,-1.03759765625,-0.3662109375,-126,2400,5123,18764,-106,24207,103.07373046875,-0.582275390625,132.9730224609375,357,3.57,0
34,104554,0.076,288504,76,2,-141,1882,780,-0.06884765625,0.9189453125,0.380859375,-8,5,6,-0.48828125,0.30517578125,0.3662109375,930,2713,-3533,12295,745,104,67.5384521484375,4.0924072265625,0.5712890625,355,3.55,0
35,104555,0.081,288509,81,0,-37,1997,-392,-0.01806640625,0.97509765625,-0.19140625,-6,-9,7,-0.3662109375,-0.54931640625,0.42724609375,-4219,2595,-1312,18369,280,-31107,100.9039306640625,1.5380859375,-170.8758544921875,349,3.49,0
36,104556,0.082,288510,82,1,49,1983,-475,0.02392578125,0.96826171875,-0.23193359375,-3,-16,-6,-0.18310546875,-0.9765625,-0.3662109375,-127,2424,5113,18764,-106,24207,103.07373046875,-0.582275390625,132.9730224609375,357,3.57,0
37,104557,0.083,288511,83,2,-144,1886,780,-0.0703125,0.9208984375,0.380859375,-8,5,6,-0.48828125,0.30517578125,0.3662109375,943,2702,-3466,12295,745,111,67.5384521484375,4.0924072265625,0.6097412109375,355,3.55,0
38,104558,0.088,288516,88,0,-39,2000,-395,-0.01904296875,0.9765625,-0.19287109375,-4,-12,7,-0.244140625,-0.732421875,0.42724609375,-4252,2610,-1311,18369,280,-31107,100.9039306640625,1.5380859375,-170.8758544921875,349,3.49,0
39,104559,0.089,288517,89,1,50,1982,-470,0.0244140625,0.9677734375,-0.2294921875,-1,-15,-4,-0.06103515625,-0.91552734375,-0.244140625,-153,2438,5108,18764,-106,24207,103.07373046875,-0.582275390625,132.9730224609375,357,3.57,0
40,104560,0.09,288518,90,2,-146,1887,780,-0.0712890625,0.92138671875,0.380859375,-9,4,7,-0.54931640625,0.244140625,0.42724609375,940,2698,-3449,12295,745,111,67.5384521484375,4.0924072265625,0.6097412109375,355,3.55,0
41,104561,0.095,288523,95,0,-36,2004,-389,-0.017578125,0.978515625,-0.18994140625,-1,-14,8,-0.06103515625,-0.8544921875,0.48828125,-4266,2619,-1322,18369,280,-31107,100.9039306640625,1.5380859375,-170.8758544921875,349,3.49,0
42,104562,0.096,288524,96,1,53,1980,-466,0.02587890625,0.966796875,-0.2275390625,1,-7,-7,0.06103515625,-0.42724609375,-0.42724609375,-166,2441,5107,18764,-107,24207,103.07373046875,-0.5877685546875,132.9730224609375,357,3.57,0
43,104563,0.097,288525,97,2,-148,1889,781,-0.072265625,0.92236328125,0.38134765625,-10,1,8,-0.6103515625,0.06103515625,0.48828125,921,2692,-3488,12294,745,111,67.532958984375,4.0924072265625,0.6097412109375,356,3.56,0
44,104564,0.102,288530,102,0,-37,2009,-382,-0.01806640625,0.98095703125,-0.1865234375,1,-21,7,0.06103515625,-1.28173828125,0.42724609375,-4265,2645,-1296,18368,279,-31106,100.8984375,1.5325927734375,-170.870361328125,349,3.49,0
45,104565,0.104,288532,104,2,-149,1892,782,-0.07275390625,0.923828125,0.3818359375,-8,-3,10,-0.48828125,-0.18310546875,0.6103515625,934,2683,-3494,12294,744,119,67.532958984375,4.0869140625,0.6536865234375,356,3.56,0
46,104566,0.109,288537,109,0,-36,2008,-378,-0.017578125,0.98046875,-0.1845703125,-1,-26,7,-0.06103515625,-1.5869140625,0.42724609375,-4275,2670,-1267,18368,279,-31106,100.8984375,1.5325927734375,-170.870361328125,349,3.49,0
47,104567,0.111,288539,111,2,-148,1893,782,-0.072265625,0.92431640625,0.3818359375,-7,-3,11,-0.42724609375,-0.18310546875,0.67138671875,958,2681,-3498,12294,744,119,67.532958984375,4.0869140625,0.6536865234375,356,3.56,0
48,104568,0.116,288544,116,0,-30,2011,-371,-0.0146484375,0.98193359375,-0.18115234375,-4,-28,2,-0.244140625,-1.708984375,0.1220703125,-4275,2684,-1199,18367,278,-31105,100.8929443359375,1.527099609375,-170.8648681640625,349,3.49,0
49,104569,0.118,288546,118,2,-146,1894,781,-0.0712890625,0.9248046875,0.38134765625,-8,-3,11,-0.48828125,-0.18310546875,0.67138671875,995,2685,-3523,12293,744,118,67.5274658203125,4.0869140625,0.648193359375,357,3.57,0
50,104570,0.123,288551,123,0,-30,2008,-368,-0.0146484375,0.98046875,-0.1796875,-5,-28,4,-0.30517578125,-1.708984375,0.244140625,-4275,2690,-1170,18367,278,-31105,100.8929443359375,1.527099609375,-170.8648681640625,349,3.49,0
51,104571,0.124,288552,124,1,52,1987,-476,0.025390625,0.97021484375,-0.232421875,5,-2,2,0.30517578125,-0.1220703125,0.1220703125,-157,2422,5083,18764,-108,24208,103.07373046875,-0.59326171875,132.978515625,356,3.56,0
52,104572,0.125,288553,125,2,-146,1894,781,-0.0712890625,0.9248046875,0.38134765625,-9,-4,11,-0.54931640625,-0.244140625,0.67138671875,989,2676,-3495,12293,744,126,67.5274658203125,4.0869140625,0.692138671875,357,3.57,0
53,104573,0.136,288564,136,0,-26,2007,-367,-0.0126953125,0.97998046875,-0.17919921875,-6,-26,-1,-0.3662109375,-1.5869140625,-0.06103515625,-4276,2688,-1207,18367,278,-31105,100.8929443359375,1.527099609375,-170.8648681640625,349,3.49,0
54,104574,0.136,288564,136,1,48,1985,-477,0.0234375,0.96923828125,-0.23291015625,6,-6,5,0.3662109375,-0.3662109375,0.30517578125,-133,2438,5113,18764,-108,24208,103.07373046875,-0.59326171875,132.978515625,356,3.56,0
55,104575,0.136,288564,136,2,-146,1892,781,-0.0712890625,0.923828125,0.38134765625,-10,-5,11,-0.6103515625,-0.30517578125,0.67138671875,963,2670,-3454,12293,744,126,67.5274658203125,4.0869140625,0.692138671875,357,3.57,0
56,104576,0.137,288565,137,0,-20,2003,-361,-0.009765625,0.97802734375,-0.17626953125,-6,-18,2,-0.3662109375,-1.0986328125,0.1220703125,-4299,2668,-1184,18366,278,-31104,100.887451171875,1.527099609375,-170.859375,349,3.49,0
57,104577,0.139,288567,139,2,-147,1889,782,-0.07177734375,0.92236328125,0.3818359375,-8,-7,12,-0.48828125,-0.42724609375,0.732421875,953,2680,-3434,12292,744,126,67.52197265625,4.0869140625,0.692138671875,357,3.57,0
58,104578,0.144,288572,144,0,-23,1999,-363,-0.01123046875,0.97607421875,-0.17724609375,-5,-12,1,-0.30517578125,-0.732421875,0.06103515625,-4299,2667,-1174,18366,278,-31104,100.887451171875,1.527099609375,-170.859375,349,3.49,0
59,104579,0.145,288573,145,1,41,1987,-474,0.02001953125,0.97021484375,-0.2314453125,4,-14,8,0.244140625,-0.8544921875,0.48828125,-137,2430,5129,18765,-109,24208,103.0792236328125,-0.5987548828125,132.978515625,356,3.56,0
60,104580,0.146,288574,146,2,-148,1889,782,-0.072265625,0.92236328125,0.3818359375,-5,-8,13,-0.30517578125,-0.48828125,0.79345703125,959,2712,-3453,12292,744,133,67.52197265625,4.0869140625,0.7305908203125,357,3.57,0
61,104581,0.151,288579,151,0,-23,1999,-363,-0.01123046875,0.97607421875,-0.17724609375,-5,-12,1,-0.30517578125,-0.732421875,0.06103515625,-4299,2667,-1174,18366,278,-31104,100.887451171875,1.527099609375,-170.859375,349,3.49,0
62,104582,0.153,288581,153,2,-149,1890,780,-0.07275390625,0.9228515625,0.380859375,-9,-7,15,-0.54931640625,-0.42724609375,0.91552734375,978,2679,-3402,12292,744,133,67.52197265625,4.0869140625,0.7305908203125,357,3.57,0
63,104583,0.158,288586,158,0,-23,2002,-368,-0.01123046875,0.9775390625,-0.1796875,-8,0,8,-0.48828125,0.0,0.48828125,-4303,2641,-1221,18366,277,-31103,100.887451171875,1.5216064453125,-170.8538818359375,349,3.49,0
64,104584,0.168,288596,168,1,32,1980,-468,0.015625,0.966796875,-0.228515625,-3,-11,3,-0.18310546875,-0.67138671875,0.18310546875,-141,2440,5092,18765,-109,24208,103.0792236328125,-0.5987548828125,132.978515625,356,3.56,0
65,104585,0.168,288596,168,2,-150,1890,779,-0.0732421875,0.9228515625,0.38037109375,-12,-5,16,-0.732421875,-0.30517578125,0.9765625,1006,2702,-3410,12292,744,141,67.52197265625,4.0869140625,0.7745361328125,358,3.58,0
66,104586,0.172,288600,172,0,-26,2008,-378,-0.0126953125,0.98046875,-0.1845703125,-8,9,13,-0.48828125,0.54931640625,0.79345703125,-4263,2640,-1246,18366,277,-31103,100.887451171875,1.5216064453125,-170.8538818359375,349,3.49,0
67,104587,0.173,288601,173,1,26,1976,-469,0.0126953125,0.96484375,-0.22900390625,-4,-13,-1,-0.244140625,-0.79345703125,-0.06103515625,-155,2459,5109,18765,-109,24208,103.0792236328125,-0.5987548828125,132.978515625,356,3.56,0
68,104588,0.174,288602,174,2,-151,1890,782,-0.07373046875,0.9228515625,0.3818359375,-4,-6,15,-0.244140625,-0.3662109375,0.91552734375,987,2687,-3400,12291,744,141,67.5164794921875,4.0869140625,0.7745361328125,358,3.58,0
69,104589,0.179,288607,179,0,-29,2011,-380,-0.01416015625,0.98193359375,-0.185546875,-7,7,14,-0.42724609375,0.42724609375,0.8544921875,-4260,2637,-1247,18365,276,-31102,100.8819580078125,1.51611328125,-170.848388671875,349,3.49,0
70,104590,0.181,288609,181,2,-150,1891,781,-0.0732421875,0.92333984375,0.38134765625,-2,-6,15,-0.1220703125,-0.3662109375,0.91552734375,994,2674,-3453,12291,744,141,67.5164794921875,4.0869140625,0.7745361328125,358,3.58,0
71,104591,0.186,288614,186,0,-29,2011,-380,-0.01416015625,0.98193359375,-0.185546875,-7,7,14,-0.42724609375,0.42724609375,0.8544921875,-4260,2637,-1247,18365,276,-31102,100.8819580078125,1.51611328125,-170.848388671875,349,3.49,0
72,104592,0.188,288616,188,2,-148,1892,778,-0.072265625,0.923828125,0.3798828125,-10,-8,15,-0.6103515625,-0.48828125,0.91552734375,986,2688,-3535,12291,744,148,67.5164794921875,4.0869140625,0.81298828125,358,3.58,0
73,104593,0.193,288621,193,0,-40,2017,-394,-0.01953125,0.98486328125,-0.1923828125,-5,1,14,-0.30517578125,0.06103515625,0.8544921875,-4242,2658,-1240,18365,276,-31102,100.8819580078125,1.51611328125,-170.848388671875,348,3.48,0
74,104594,0.194,288622,194,1,35,1982,-468,0.01708984375,0.9677734375,-0.228515625,5,-10,-7,0.30517578125,-0.6103515625,-0.42724609375,-143,2440,5173,18766,-110,24209,103.084716796875,-0.604248046875,132.9840087890625,355,3.55,0
75,104595,0.195,288623,195,2,-148,1892,777,-0.072265625,0.923828125,0.37939453125,-14,-9,15,-0.8544921875,-0.54931640625,0.91552734375,985,2678,-3509,12290,744,148,67.510986328125,4.0869140625,0.81298828125,358,3.58,0
76,104596,0.2,288628,200,0,-40,2015,-393,-0.01953125,0.98388671875,-0.19189453125,-6,-4,13,-0.3662109375,-0.244140625,0.79345703125,-4263,2658,-1201,18364,275,-31101,100.87646484375,1.5106201171875,-170.8428955078125,348,3.48,0
77,104597,0.202,288630,202,2,-147,1891,778,-0.07177734375,0.92333984375,0.3798828125,-14,-10,14,-0.8544921875,-0.6103515625,0.8544921875,1011,2667,-3503,12290,744,148,67.510986328125,4.0869140625,0.81298828125,358,3.58,0
78,104598,0.207,288635,207,0,-43,2014,-388,-0.02099609375,0.9833984375,-0.189453125,-5,-20,8,-0.30517578125,-1.220703125,0.48828125,-4269,2669,-1215,18364,275,-31101,100.87646484375,1.5106201171875,-170.8428955078125,348,3.48,0
79,104599,0.209,288637,209,2,-141,1888,783,-0.06884765625,0.921875,0.38232421875,-9,-10,12,-0.54931640625,-0.6103515625,0.732421875,996,2659,-3497,12290,744,156,67.510986328125,4.0869140625,0.85693359375,357,3.57,0
80,104600,0.214,288642,214,0,-45,2011,-388,-0.02197265625,0.98193359375,-0.189453125,-5,-24,7,-0.30517578125,-1.46484375,0.42724609375,-4280,2676,-1208,18364,275,-31101,100.87646484375,1.5106201171875,-170.8428955078125,348,3.48,0
81,104601,0.215,288643,215,1,54,1990,-465,0.0263671875,0.9716796875,-0.22705078125,2,0,-6,0.1220703125,0.0,-0.3662109375,-160,2461,5155,18766,-110,24209,103.084716796875,-0.604248046875,132.9840087890625,355,3.55,0
82,104602,0.216,288644,216,2,-139,1887,785,-0.06787109375,0.92138671875,0.38330078125,-5,-9,10,-0.30517578125,-0.54931640625,0.6103515625,998,2639,-3502,12290,744,156,67.510986328125,4.0869140625,0.85693359375,357,3.57,0
83,104603,0.221,288649,221,0,-45,2011,-388,-0.02197265625,0.98193359375,-0.189453125,-5,-24,7,-0.30517578125,-1.46484375,0.42724609375,-4280,2676,-1208,18364,275,-31101,100.87646484375,1.5106201171875,-170.8428955078125,348,3.48,0
84,104604,0.229,288657,229,1,59,1990,-472,0.02880859375,0.9716796875,-0.23046875,4,-2,1,0.244140625,-0.1220703125,0.06103515625,-128,2486,5149,18766,-111,24210,103.084716796875,-0.6097412109375,132.989501953125,355,3.55,0
85,104605,0.229,288657,229,2,-138,1885,786,-0.0673828125,0.92041015625,0.3837890625,-1,-9,9,-0.06103515625,-0.54931640625,0.54931640625,985,2625,-3476,12290,743,163,67.510986328125,4.0814208984375,0.8953857421875,357,3.57,0
86,104606,0.229,288657,229,0,-45,2008,-366,-0.02197265625,0.98046875,-0.1787109375,-2,-40,6,-0.1220703125,-2.44140625,0.3662109375,-4263,2649,-1236,18363,275,-31100,100.8709716796875,1.5106201171875,-170.83740234375,348,3.48,0
87,104607,0.229,288657,229,1,58,1990,-470,0.0283203125,0.9716796875,-0.2294921875,4,-3,4,0.244140625,-0.18310546875,0.244140625,-143,2475,5140,18766,-111,24210,103.084716796875,-0.6097412109375,132.989501953125,355,3.55,0
88,104608,0.23,288658,230,2,-139,1884,785,-0.06787109375,0.919921875,0.38330078125,-4,-10,8,-0.244140625,-0.6103515625,0.48828125,999,2628,-3477,12290,743,163,67.510986328125,4.0814208984375,0.8953857421875,357,3.57,0
89,104609,0.235,288663,235,0,-44,2006,-366,-0.021484375,0.9794921875,-0.1787109375,-5,-39,4,-0.30517578125,-2.38037109375,0.244140625,-4278,2654,-1255,18363,275,-31100,100.8709716796875,1.5106201171875,-170.83740234375,348,3.48,0
90,104610,0.237,288665,237,2,-141,1884,786,-0.06884765625,0.919921875,0.3837890625,-4,-11,9,-0.244140625,-0.67138671875,0.54931640625,1000,2617,-3522,12289,743,163,67.5054931640625,4.0814208984375,0.8953857421875,357,3.57,0
91,104611,0.242,288670,242,0,-47,2006,-359,-0.02294921875,0.9794921875,-0.17529296875,-4,-34,4,-0.244140625,-2.0751953125,0.244140625,-4267,2633,-1211,18362,274,-31100,100.865478515625,1.505126953125,-170.83740234375,347,3.47,0
92,104612,0.244,288672,244,2,-143,1885,786,-0.06982421875,0.92041015625,0.3837890625,0,-12,10,0.0,-0.732421875,0.6103515625,991,2590,-3449,12289,743,170,67.5054931640625,4.0814208984375,0.933837890625,357,3.57,0
93,104613,0.249,288677,249,0,-45,2009,-362,-0.02197265625,0.98095703125,-0.1767578125,-6,-33,4,-0.3662109375,-2.01416015625,0.244140625,-4272,2639,-1225,18362,274,-31100,100.865478515625,1.505126953125,-170.83740234375,347,3.47,0
94,104614,0.251,288679,251,2,-144,1885,786,-0.0703125,0.92041015625,0.3837890625,1,-13,11,0.06103515625,-0.79345703125,0.67138671875,1004,2582,-3461,12289,743,170,67.5054931640625,4.0814208984375,0.933837890625,357,3.57,0
95,104615,0.256,288684,256,0,-42,2007,-362,-0.0205078125,0.97998046875,-0.1767578125,-6,-28,6,-0.3662109375,-1.708984375,0.3662109375,-4267,2638,-1244,18362,274,-31100,100.865478515625,1.505126953125,-170.83740234375,347,3.47,0
96,104616,0.258,288686,258,2,-145,1885,785,-0.07080078125,0.92041015625,0.38330078125,1,-14,11,0.06103515625,-0.8544921875,0.67138671875,1009,2595,-3457,12288,743,170,67.5,4.0814208984375,0.933837890625,357,3.57,0
97,104617,0.263,288691,263,0,-42,2014,-367,-0.0205078125,0.9833984375,-0.17919921875,-8,-21,6,-0.48828125,-1.28173828125,0.3662109375,-4245,2645,-1247,18361,274,-31099,100.8599853515625,1.505126953125,-170.8319091796875,347,3.47,0
98,104618,0.265,288693,265,2,-149,1887,783,-0.07275390625,0.92138671875,0.38232421875,-4,-16,11,-0.244140625,-0.9765625,0.67138671875,1032,2612,-3441,12288,743,178,67.5,4.0814208984375,0.977783203125,357,3.57,0
99,104619,0.27,288698,270,0,-34,2014,-369,-0.0166015625,0.9833984375,-0.18017578125,-10,-16,4,-0.6103515625,-0.9765625,0.244140625,-4234,2625,-1292,18361,274,-31099,100.8599853515625,1.505126953125,-170.8319091796875,347,3.47,0
100,104620,0.272,288700,272,2,-150,1888,783,-0.0732421875,0.921875,0.38232421875,-7,-16,12,-0.42724609375,-0.9765625,0.732421875,1027,2628,-3465,12288,743,178,67.5,4.0814208984375,0.977783203125,357,3.57,0
101,104621,0.277,288705,277,0,-34,2014,-369,-0.0166015625,0.9833984375,-0.18017578125,-10,-16,4,-0.6103515625,-0.9765625,0.244140625,-4234,2625,-1292,18361,274,-31099,100.8599853515625,1.505126953125,-170.8319091796875,347,3.47,0
102,104622,0.279,288707,279,2,-151,1890,784,-0.07373046875,0.9228515625,0.3828125,-4,-14,12,-0.244140625,-0.8544921875,0.732421875,1032,2653,-3479,12287,743,178,67.4945068359375,4.0814208984375,0.977783203125,357,3.57,0
103,104623,0.284,288712,284,0,-29,2012,-375,-0.01416015625,0.982421875,-0.18310546875,-13,-9,8,-0.79345703125,-0.54931640625,0.48828125,-4238,2643,-1351,18360,274,-31098,100.8544921875,1.505126953125,-170.826416015625,347,3.47,0
104,104624,0.293,288721,293,2,-150,1891,784,-0.0732421875,0.92333984375,0.3828125,-2,-14,12,-0.1220703125,-0.8544921875,0.732421875,1017,2672,-3484,12287,743,186,67.4945068359375,4.0814208984375,1.021728515625,357,3.57,0
105,104625,0.293,288721,293,0,-28,2012,-374,-0.013671875,0.982421875,-0.1826171875,-14,-6,6,-0.8544921875,-0.3662109375,0.3662109375,-4261,2658,-1358,18360,274,-31098,100.8544921875,1.505126953125,-170.826416015625,347,3.47,0
106,104626,0.293,288721,293,1,32,1975,-463,0.015625,0.96435546875,-0.22607421875,-1,-19,2,-0.06103515625,-1.15966796875,0.1220703125,-175,2405,5101,18767,-113,24210,103.0902099609375,-0.6207275390625,132.989501953125,354,3.54,0
107,104627,0.293,288721,293,2,-148,1892,784,-0.072265625,0.923828125,0.3828125,-3,-13,11,-0.18310546875,-0.79345703125,0.67138671875,1016,2686,-3501,12287,743,186,67.4945068359375,4.0814208984375,1.021728515625,357,3.57,0
108,104628,0.298,288726,298,0,-26,2010,-374,-0.0126953125,0.9814453125,-0.1826171875,-11,-8,8,-0.67138671875,-0.48828125,0.48828125,-4253,2663,-1315,18359,273,-31098,100.8489990234375,1.4996337890625,-170.826416015625,346,3.46,0
109,104629,0.3,288728,300,2,-143,1892,782,-0.06982421875,0.923828125,0.3818359375,-3,-12,9,-0.18310546875,-0.732421875,0.54931640625,997,2683,-3514,12286,743,185,67.489013671875,4.0814208984375,1.0162353515625,357,3.57,0
110,104630,0.305,288733,305,0,-26,2006,-376,-0.0126953125,0.9794921875,-0.18359375,-10,-13,7,-0.6103515625,-0.79345703125,0.42724609375,-4263,2626,-1311,18359,273,-31098,100.8489990234375,1.4996337890625,-170.826416015625,346,3.46,0
111,104631,0.307,288735,307,2,-141,1891,781,-0.06884765625,0.92333984375,0.38134765625,-3,-12,8,-0.18310546875,-0.732421875,0.48828125,1002,2693,-3474,12286,743,193,67.489013671875,4.0814208984375,1.0601806640625,357,3.57,0
112,104632,0.312,288740,312,0,-26,2006,-376,-0.0126953125,0.9794921875,-0.18359375,-10,-13,7,-0.6103515625,-0.79345703125,0.42724609375,-4263,2626,-1311,18359,273,-31098,100.8489990234375,1.4996337890625,-170.826416015625,346,3.46,0
113,104633,0.314,288742,314,2,-139,1889,778,-0.06787109375,0.92236328125,0.3798828125,-3,-12,7,-0.18310546875,-0.732421875,0.42724609375,986,2694,-3512,12286,743,193,67.489013671875,4.0814208984375,1.0601806640625,357,3.57,0
114,104634,0.319,288747,319,0,-28,2010,-379,-0.013671875,0.9814453125,-0.18505859375,-4,-21,8,-0.244140625,-1.28173828125,0.48828125,-4232,2608,-1261,18359,272,-31097,100.8489990234375,1.494140625,-170.8209228515625,346,3.46,0
115,104635,0.321,288749,321,2,-138,1889,778,-0.0673828125,0.92236328125,0.3798828125,-2,-12,7,-0.1220703125,-0.732421875,0.42724609375,992,2690,-3451,12286,743,193,67.489013671875,4.0814208984375,1.0601806640625,357,3.57,0
116,104636,0.326,288754,326,0,-28,2012,-380,-0.013671875,0.982421875,-0.185546875,-5,-27,7,-0.30517578125,-1.64794921875,0.42724609375,-4246,2630,-1242,18359,272,-31097,100.8489990234375,1.494140625,-170.8209228515625,346,3.46,0
117,104637,0.328,288756,328,2,-139,1889,780,-0.06787109375,0.92236328125,0.380859375,-3,-13,7,-0.18310546875,-0.79345703125,0.42724609375,992,2706,-3453,12286,742,200,67.489013671875,4.075927734375,1.0986328125,357,3.57,0
118,104638,0.333,288761,333,0,-31,2012,-377,-0.01513671875,0.982421875,-0.18408203125,-4,-27,7,-0.244140625,-1.64794921875,0.42724609375,-4230,2647,-1197,18359,272,-31097,100.8489990234375,1.494140625,-170.8209228515625,346,3.46,0
119,104639,0.334,288762,334,1,46,1987,-479,0.0224609375,0.97021484375,-0.23388671875,1,-13,4,0.06103515625,-0.79345703125,0.244140625,-205,2395,5193,18767,-114,24211,103.0902099609375,-0.626220703125,132.9949951171875,355,3.55,0
120,104640,0.335,288763,335,2,-140,1890,781,-0.068359375,0.9228515625,0.38134765625,0,-14,8,0.0,-0.8544921875,0.48828125,975,2711,-3434,12285,742,200,67.4835205078125,4.075927734375,1.0986328125,358,3.58,0
121,104641,0.34,288768,340,0,-31,2013,-381,-0.01513671875,0.98291015625,-0.18603515625,-6,-24,7,-0.3662109375,-1.46484375,0.42724609375,-4245,2664,-1214,18358,272,-31096,100.843505859375,1.494140625,-170.8154296875,346,3.46,0
122,104642,0.347,288775,347,0,-31,2013,-381,-0.01513671875,0.98291015625,-0.18603515625,-6,-24,7,-0.3662109375,-1.46484375,0.42724609375,-4245,2664,-1214,18358,272,-31096,100.843505859375,1.494140625,-170.8154296875,346,3.46,0
123,104643,0.349,288777,349,2,-140,1893,782,-0.068359375,0.92431640625,0.3818359375,-4,-13,8,-0.244140625,-0.79345703125,0.48828125,973,2701,-3448,12285,742,207,67.4835205078125,4.075927734375,1.1370849609375,358,3.58,0
124,104644,0.357,288785,357,0,-27,2010,-378,-0.01318359375,0.9814453125,-0.1845703125,-9,-23,3,-0.54931640625,-1.40380859375,0.18310546875,-4261,2621,-1196,18358,272,-31096,100.843505859375,1.494140625,-170.8154296875,346,3.46,0
125,104645,0.357,288785,357,1,41,1986,-472,0.02001953125,0.9697265625,-0.23046875,-3,-13,8,-0.18310546875,-0.79345703125,0.48828125,-187,2426,5184,18767,-115,24212,103.0902099609375,-0.6317138671875,133.00048828125,355,3.55,0
126,104646,0.357,288785,357,2,-141,1893,783,-0.06884765625,0.92431640625,0.38232421875,-6,-13,8,-0.3662109375,-0.79345703125,0.48828125,962,2699,-3454,12284,742,207,67.47802734375,4.075927734375,1.1370849609375,358,3.58,0
127,104647,0.361,288789,361,0,-28,2006,-374,-0.013671875,0.9794921875,-0.1826171875,-9,-22,0,-0.54931640625,-1.3427734375,0.0,-4262,2611,-1193,18357,271,-31096,100.8380126953125,1.4886474609375,-170.8154296875,346,3.46,0
128,104648,0.37,288798,370,1,42,1981,-471,0.0205078125,0.96728515625,-0.22998046875,1,-16,8,0.06103515625,-0.9765625,0.48828125,-182,2441,5240,18767,-115,24212,103.0902099609375,-0.6317138671875,133.00048828125,355,3.55,0
129,104649,0.371,288799,371,2,-146,1891,785,-0.0712890625,0.92333984375,0.38330078125,-2,-12,8,-0.1220703125,-0.732421875,0.48828125,985,2669,-3489,12284,742,214,67.47802734375,4.075927734375,1.175537109375,358,3.58,0
130,104650,0.375,288803,375,0,-21,1994,-373,-0.01025390625,0.9736328125,-0.18212890625,-9,-14,-2,-0.54931640625,-0.8544921875,-0.1220703125,-4273,2580,-1154,18357,271,-31096,100.8380126953125,1.4886474609375,-170.8154296875,346,3.46,0
131,104651,0.376,288804,376,1,48,1976,-460,0.0234375,0.96484375,-0.224609375,0,-20,3,0.0,-1.220703125,0.18310546875,-186,2440,5258,18767,-115,24212,103.0902099609375,-0.6317138671875,133.00048828125,355,3.55,0
132,104652,0.377,288805,377,2,-147,1889,785,-0.07177734375,0.92236328125,0.38330078125,-1,-10,8,-0.06103515625,-0.6103515625,0.48828125,982,2662,-3515,12283,742,214,67.4725341796875,4.075927734375,1.175537109375,358,3.58,0
133,104653,0.382,288810,382,0,-21,1996,-375,-0.01025390625,0.974609375,-0.18310546875,-8,-13,1,-0.48828125,-0.79345703125,0.06103515625,-4296,2565,-1164,18356,270,-31095,100.83251953125,1.483154296875,-170.8099365234375,346,3.46,0
134,104654,0.383,288811,383,1,51,1979,-455,0.02490234375,0.96630859375,-0.22216796875,3,-17,-1,0.18310546875,-1.03759765625,-0.06103515625,-178,2415,5228,18768,-116,24212,103.095703125,-0.63720703125,133.00048828125,355,3.55,0
135,104655,0.384,288812,384,2,-148,1886,785,-0.072265625,0.9208984375,0.38330078125,1,-9,7,0.06103515625,-0.54931640625,0.42724609375,965,2675,-3493,12283,742,214,67.4725341796875,4.075927734375,1.175537109375,358,3.58,0
136,104656,0.389,288817,389,0,-21,2001,-372,-0.01025390625,0.97705078125,-0.181640625,-10,-9,2,-0.6103515625,-0.54931640625,0.1220703125,-4282,2575,-1196,18356,270,-31095,100.83251953125,1.483154296875,-170.8099365234375,347,3.47,0
137,104657,0.391,288819,391,2,-146,1884,783,-0.0712890625,0.919921875,0.38232421875,1,-6,8,0.06103515625,-0.3662109375,0.48828125,953,2683,-3449,12283,742,221,67.4725341796875,4.075927734375,1.2139892578125,358,3.58,0
138,104658,0.396,288824,396,0,-19,1999,-375,-0.00927734375,0.97607421875,-0.18310546875,-5,-1,5,-0.30517578125,-0.06103515625,0.30517578125,-4264,2587,-1209,18356,270,-31095,100.83251953125,1.483154296875,-170.8099365234375,347,3.47,0
139,104659,0.398,288826,398,2,-144,1884,782,-0.0703125,0.919921875,0.3818359375,1,-4,7,0.06103515625,-0.244140625,0.42724609375,957,2680,-3428,12283,741,221,67.4725341796875,4.0704345703125,1.2139892578125,358,3.58,0
140,104660,0.403,288831,403,0,-20,2009,-377,-0.009765625,0.98095703125,-0.18408203125,-6,5,7,-0.3662109375,0.30517578125,0.42724609375,-4221,2579,-1225,18355,269,-31093,100.8270263671875,1.4776611328125,-170.7989501953125,348,3.48,0
141,104661,0.404,288832,404,1,61,1980,-467,0.02978515625,0.966796875,-0.22802734375,3,-15,-6,0.18310546875,-0.91552734375,-0.3662109375,-209,2379,5213,18768,-116,24213,103.095703125,-0.63720703125,133.0059814453125,355,3.55,0
142,104662,0.405,288833,405,2,-142,1886,781,-0.0693359375,0.9208984375,0.38134765625,-2,-3,8,-0.1220703125,-0.18310546875,0.48828125,963,2675,-3392,12283,741,228,67.4725341796875,4.0704345703125,1.25244140625,357,3.57,0
143,104663,0.41,288838,410,0,-17,2012,-382,-0.00830078125,0.982421875,-0.1865234375,-4,7,3,-0.244140625,0.42724609375,0.18310546875,-4224,2587,-1226,18355,269,-31093,100.8270263671875,1.4776611328125,-170.7989501953125,348,3.48,0
144,104664,0.411,288839,411,1,61,1986,-468,0.02978515625,0.9697265625,-0.228515625,7,-16,-4,0.42724609375,-0.9765625,-0.244140625,-218,2372,5209,18768,-116,24213,103.095703125,-0.63720703125,133.0059814453125,355,3.55,0
145,104665,0.412,288840,412,2,-140,1887,781,-0.068359375,0.92138671875,0.38134765625,-4,-3,10,-0.244140625,-0.18310546875,0.6103515625,988,2654,-3410,12283,741,228,67.4725341796875,4.0704345703125,1.25244140625,357,3.57,0
146,104666,0.417,288845,417,0,-19,2009,-385,-0.00927734375,0.98095703125,-0.18798828125,-5,6,7,-0.30517578125,0.3662109375,0.42724609375,-4233,2580,-1196,18355,269,-31093,100.8270263671875,1.4776611328125,-170.7989501953125,348,3.48,0
147,104667,0.418,288846,418,1,63,1990,-476,0.03076171875,0.9716796875,-0.232421875,4,-14,-5,0.244140625,-0.8544921875,-0.30517578125,-222,2391,5180,18768,-117,24213,103.095703125,-0.6427001953125,133.0059814453125,355,3.55,0
148,104668,0.419,288847,419,2,-139,1888,782,-0.06787109375,0.921875,0.3818359375,-6,-2,11,-0.3662109375,-0.1220703125,0.67138671875,1011,2634,-3426,12282,741,227,67.467041015625,4.0704345703125,1.2469482421875,357,3.57,0
149,104669,0.424,288852,424,0,-20,2015,-399,-0.009765625,0.98388671875,-0.19482421875,-10,5,2,-0.6103515625,0.30517578125,0.1220703125,-4217,2588,-1158,18355,268,-31092,100.8270263671875,1.47216796875,-170.79345703125,348,3.48,0
150,104670,0.431,288859,431,1,60,1988,-475,0.029296875,0.970703125,-0.23193359375,3,-13,-6,0.18310546875,-0.79345703125,-0.3662109375,-240,2377,5150,18768,-117,24213,103.095703125,-0.6427001953125,133.0059814453125,355,3.55,0
151,104671,0.431,288859,431,2,-137,1889,782,-0.06689453125,0.92236328125,0.3818359375,-8,-1,13,-0.48828125,-0.06103515625,0.79345703125,970,2624,-3421,12282,741,235,67.467041015625,4.0704345703125,1.2908935546875,357,3.57,0
152,104672,0.431,288859,431,0,-21,2012,-393,-0.01025390625,0.982421875,-0.19189453125,-12,4,2,-0.732421875,0.244140625,0.1220703125,-4221,2577,-1189,18355,268,-31092,100.8270263671875,1.47216796875,-170.79345703125,349,3.49,0
153,104673,0.433,288861,433,2,-138,1890,783,-0.0673828125,0.9228515625,0.38232421875,-7,-1,14,-0.42724609375,-0.06103515625,0.8544921875,980,2640,-3435,12282,741,235,67.467041015625,4.0704345703125,1.2908935546875,356,3.56,0
154,104674,0.438,288866,438,0,-21,2012,-393,-0.01025390625,0.982421875,-0.19189453125,-12,4,2,-0.732421875,0.244140625,0.1220703125,-4221,2577,-1189,18355,268,-31092,100.8270263671875,1.47216796875,-170.79345703125,349,3.49,0
155,104675,0.439,288867,439,1,62,1982,-476,0.0302734375,0.9677734375,-0.232421875,0,0,-1,0.0,0.0,-0.06103515625,-260,2389,5102,18768,-118,24214,103.095703125,-0.648193359375,133.011474609375,355,3.55,0
156,104676,0.44,288868,440,2,-138,1890,784,-0.0673828125,0.9228515625,0.3828125,-4,0,15,-0.244140625,0.0,0.91552734375,1006,2670,-3450,12281,741,234,67.4615478515625,4.0704345703125,1.285400390625,356,3.56,0
157,104677,0.445,288873,445,0,-20,2006,-399,-0.009765625,0.9794921875,-0.19482421875,-9,-4,1,-0.54931640625,-0.244140625,0.06103515625,-4239,2570,-1197,18354,268,-31092,100.821533203125,1.47216796875,-170.79345703125,349,3.49,0
158,104678,0.446,288874,446,1,56,1980,-477,0.02734375,0.966796875,-0.23291015625,2,3,1,0.1220703125,0.18310546875,0.06103515625,-237,2382,5051,18768,-118,24214,103.095703125,-0.648193359375,133.011474609375,355,3.55,0
159,104679,0.447,288875,447,2,-138,1890,785,-0.0673828125,0.9228515625,0.38330078125,-4,0,15,-0.244140625,0.0,0.91552734375,1016,2668,-3462,12281,741,242,67.4615478515625,4.0704345703125,1.329345703125,356,3.56,0
160,104680,0.452,288880,452,0,-19,2000,-397,-0.00927734375,0.9765625,-0.19384765625,-6,-5,2,-0.3662109375,-0.30517578125,0.1220703125,-4232,2553,-1199,18354,268,-31092,100.821533203125,1.47216796875,-170.79345703125,349,3.49,0
161,104681,0.453,288881,453,1,52,1980,-473,0.025390625,0.966796875,-0.23095703125,-6,7,-2,-0.3662109375,0.42724609375,-0.1220703125,-191,2382,5107,18768,-118,24214,103.095703125,-0.648193359375,133.011474609375,355,3.55,0
162,104682,0.454,288882,454,2,-139,1890,785,-0.06787109375,0.9228515625,0.38330078125,-5,1,16,-0.30517578125,0.06103515625,0.9765625,1017,2670,-3458,12281,741,242,67.4615478515625,4.0704345703125,1.329345703125,356,3.56,0
163,104683,0.459,288887,459,0,-20,2002,-390,-0.009765625,0.9775390625,-0.1904296875,1,-13,-1,0.06103515625,-0.79345703125,-0.06103515625,-4244,2550,-1202,18354,267,-31091,100.821533203125,1.4666748046875,-170.7879638671875,349,3.49,0
164,104684,0.46,288888,460,1,47,1982,-472,0.02294921875,0.9677734375,-0.23046875,-4,7,-3,-0.244140625,0.42724609375,-0.18310546875,-179,2388,5104,18768,-119,24214,103.095703125,-0.6536865234375,133.011474609375,355,3.55,0
165,104685,0.461,288889,461,2,-140,1889,786,-0.068359375,0.92236328125,0.3837890625,-6,4,13,-0.3662109375,0.244140625,0.79345703125,1035,2681,-3461,12281,741,242,67.4615478515625,4.0704345703125,1.329345703125,356,3.56,0
166,104686,0.466,288894,466,0,-23,2003,-390,-0.01123046875,0.97802734375,-0.1904296875,-3,-14,3,-0.18310546875,-0.8544921875,0.18310546875,-4238,2579,-1197,18354,267,-31091,100.821533203125,1.4666748046875,-170.7879638671875,349,3.49,0
167,104687,0.467,288895,467,1,45,1977,-471,0.02197265625,0.96533203125,-0.22998046875,-3,5,-5,-0.18310546875,0.30517578125,-0.30517578125,-140,2372,5082,18768,-119,24214,103.095703125,-0.6536865234375,133.011474609375,355,3.55,0
168,104688,0.468,288896,468,2,-141,1888,787,-0.06884765625,0.921875,0.38427734375,-5,5,12,-0.30517578125,0.30517578125,0.732421875,1022,2710,-3432,12280,740,249,67.4560546875,4.06494140625,1.3677978515625,356,3.56,0
169,104689,0.473,288901,473,0,-23,2003,-390,-0.01123046875,0.97802734375,-0.1904296875,-3,-14,3,-0.18310546875,-0.8544921875,0.18310546875,-4238,2579,-1197,18354,267,-31091,100.821533203125,1.4666748046875,-170.7879638671875,349,3.49,0
170,104690,0.474,288902,474,1,42,1982,-469,0.0205078125,0.9677734375,-0.22900390625,0,5,-3,0.0,0.30517578125,-0.18310546875,-134,2363,5096,18768,-119,24214,103.095703125,-0.6536865234375,133.011474609375,355,3.55,0
171,104691,0.475,288903,475,2,-140,1888,788,-0.068359375,0.921875,0.384765625,-1,8,10,-0.06103515625,0.48828125,0.6103515625,1056,2710,-3463,12280,740,249,67.4560546875,4.06494140625,1.3677978515625,356,3.56,0
172,104692,0.48,288908,480,0,-24,2002,-379,-0.01171875,0.9775390625,-0.18505859375,2,-14,0,0.1220703125,-0.8544921875,0.0,-4242,2596,-1267,18353,266,-31090,100.8160400390625,1.461181640625,-170.782470703125,349,3.49,0
173,104693,0.481,288909,481,1,44,1982,-465,0.021484375,0.9677734375,-0.22705078125,1,10,-3,0.06103515625,0.6103515625,-0.18310546875,-135,2381,5116,18769,-120,24214,103.1011962890625,-0.6591796875,133.011474609375,355,3.55,0
174,104694,0.482,288910,482,2,-140,1890,788,-0.068359375,0.9228515625,0.384765625,0,8,10,0.0,0.48828125,0.6103515625,1047,2709,-3459,12280,740,249,67.4560546875,4.06494140625,1.3677978515625,356,3.56,0
175,104695,0.487,288915,487,0,-25,2002,-379,-0.01220703125,0.9775390625,-0.18505859375,2,-11,0,0.1220703125,-0.67138671875,0.0,-4233,2610,-1252,18353,266,-31090,100.8160400390625,1.461181640625,-170.782470703125,349,3.49,0
176,104696,0.488,288916,488,1,38,1987,-462,0.0185546875,0.97021484375,-0.2255859375,-3,12,-6,-0.18310546875,0.732421875,-0.3662109375,-140,2402,5119,18769,-120,24214,103.1011962890625,-0.6591796875,133.011474609375,355,3.55,0
177,104697,0.495,288923,495,2,-139,1892,786,-0.06787109375,0.923828125,0.3837890625,-3,9,10,-0.18310546875,0.54931640625,0.6103515625,1057,2705,-3469,12280,740,256,67.4560546875,4.06494140625,1.40625,356,3.56,0
178,104698,0.495,288923,495,0,-24,2001,-376,-0.01171875,0.97705078125,-0.18359375,4,-6,0,0.244140625,-0.3662109375,0.0,-4208,2624,-1220,18353,266,-31090,100.8160400390625,1.461181640625,-170.782470703125,349,3.49,0
179,104699,0.495,288923,495,1,36,1984,-465,0.017578125,0.96875,-0.22705078125,-6,10,-10,-0.3662109375,0.6103515625,-0.6103515625,-162,2411,5156,18769,-120,24214,103.1011962890625,-0.6591796875,133.011474609375,355,3.55,0
180,104700,0.496,288924,496,2,-137,1895,780,-0.06689453125,0.92529296875,0.380859375,-11,11,10,-0.67138671875,0.67138671875,0.6103515625,1022,2707,-3475,12279,740,256,67.4505615234375,4.06494140625,1.40625,356,3.56,0
181,104701,0.501,288929,501,0,-24,2004,-373,-0.01171875,0.978515625,-0.18212890625,2,-1,3,0.1220703125,-0.06103515625,0.18310546875,-4201,2611,-1227,18353,265,-31089,100.8160400390625,1.4556884765625,-170.7769775390625,349,3.49,0
182,104702,0.502,288930,502,1,34,1979,-464,0.0166015625,0.96630859375,-0.2265625,-7,7,-7,-0.42724609375,0.42724609375,-0.42724609375,-168,2407,5142,18769,-121,24215,103.1011962890625,-0.6646728515625,133.0169677734375,355,3.55,0
183,104703,0.503,288931,503,2,-137,1896,778,-0.06689453125,0.92578125,0.3798828125,-13,13,9,-0.79345703125,0.79345703125,0.54931640625,1021,2700,-3515,12279,740,256,67.4505615234375,4.06494140625,1.40625,356,3.56,0
184,104704,0.508,288936,508,0,-21,2011,-377,-0.01025390625,0.98193359375,-0.18408203125,1,5,4,0.06103515625,0.30517578125,0.244140625,-4217,2625,-1204,18353,265,-31089,100.8160400390625,1.4556884765625,-170.7769775390625,349,3.49,0
185,104705,0.509,288937,509,1,41,1972,-467,0.02001953125,0.962890625,-0.22802734375,6,1,-6,0.3662109375,0.06103515625,-0.3662109375,-145,2394,5120,18769,-121,24215,103.1011962890625,-0.6646728515625,133.0169677734375,355,3.55,0
186,104706,0.51,288938,510,2,-135,1895,778,-0.06591796875,0.92529296875,0.3798828125,-13,15,10,-0.79345703125,0.91552734375,0.6103515625,1011,2717,-3522,12279,740,263,67.4505615234375,4.06494140625,1.4447021484375,356,3.56,0
187,104707,0.515,288943,515,0,-18,2015,-378,-0.0087890625,0.98388671875,-0.1845703125,-8,13,6,-0.48828125,0.79345703125,0.3662109375,-4209,2649,-1169,18353,265,-31089,100.8160400390625,1.4556884765625,-170.7769775390625,349,3.49,0
188,104708,0.516,288944,516,1,40,1971,-463,0.01953125,0.96240234375,-0.22607421875,9,-1,-3,0.54931640625,-0.06103515625,-0.18310546875,-162,2402,5156,18769,-121,24215,103.1011962890625,-0.6646728515625,133.0169677734375,355,3.55,0
189,104709,0.517,288945,517,2,-130,1896,780,-0.0634765625,0.92578125,0.380859375,-13,17,11,-0.79345703125,1.03759765625,0.67138671875,1010,2725,-3508,12278,739,263,67.445068359375,4.0594482421875,1.4447021484375,357,3.57,0
190,104710,0.522,288950,522,0,-17,2014,-379,-0.00830078125,0.9833984375,-0.18505859375,-8,14,5,-0.48828125,0.8544921875,0.30517578125,-4237,2638,-1209,18352,264,-31088,100.810546875,1.4501953125,-170.771484375,349,3.49,0
191,104711,0.523,288951,523,1,44,1978,-464,0.021484375,0.9658203125,-0.2265625,10,4,-11,0.6103515625,0.244140625,-0.67138671875,-150,2408,5136,18769,-121,24215,103.1011962890625,-0.6646728515625,133.0169677734375,355,3.55,0
192,104712,0.533,288961,533,2,-127,1897,781,-0.06201171875,0.92626953125,0.38134765625,-14,19,11,-0.8544921875,1.15966796875,0.67138671875,990,2714,-3517,12278,739,263,67.445068359375,4.0594482421875,1.4447021484375,357,3.57,0
193,104713,0.536,288964,536,0,-23,2016,-381,-0.01123046875,0.984375,-0.18603515625,-11,13,9,-0.67138671875,0.79345703125,0.54931640625,-4231,2612,-1217,18352,264,-31088,100.810546875,1.4501953125,-170.771484375,350,3.5,0
194,104714,0.537,288965,537,1,44,1983,-465,0.021484375,0.96826171875,-0.22705078125,14,1,-12,0.8544921875,0.06103515625,-0.732421875,-145,2405,5138,18769,-121,24215,103.1011962890625,-0.6646728515625,133.0169677734375,355,3.55,0
195,104715,0.538,288966,538,2,-122,1898,781,-0.0595703125,0.9267578125,0.38134765625,-21,29,13,-1.28173828125,1.77001953125,0.79345703125,980,2639,-3417,12278,739,269,67.445068359375,4.0594482421875,1.4776611328125,357,3.57,0
196,104716,0.543,288971,543,0,-22,2014,-383,-0.0107421875,0.9833984375,-0.18701171875,-9,11,7,-0.54931640625,0.67138671875,0.42724609375,-4234,2617,-1204,18352,263,-31087,100.810546875,1.4447021484375,-170.7659912109375,350,3.5,0
197,104717,0.544,288972,544,1,51,1992,-462,0.02490234375,0.97265625,-0.2255859375,10,9,-12,0.6103515625,0.54931640625,-0.732421875,-138,2433,5134,18769,-122,24216,103.1011962890625,-0.670166015625,133.0224609375,355,3.55,0
198,104718,0.545,288973,545,2,-121,1898,783,-0.05908203125,0.9267578125,0.38232421875,-25,31,14,-1.52587890625,1.89208984375,0.8544921875,979,2651,-3417,12278,739,269,67.445068359375,4.0594482421875,1.4776611328125,357,3.57,0
199,104719,0.55,288978,550,0,-25,2015,-380,-0.01220703125,0.98388671875,-0.185546875,-11,6,5,-0.67138671875,0.3662109375,0.30517578125,-4244,2621,-1221,18352,263,-31087,100.810546875,1.4447021484375,-170.7659912109375,350,3.5,0
200,104720,0.551,288979,551,1,46,1993,-467,0.0224609375,0.97314453125,-0.22802734375,7,13,-12,0.42724609375,0.79345703125,-0.732421875,-163,2443,5118,18769,-122,24216,103.1011962890625,-0.670166015625,133.0224609375,355,3.55,0
201,104721,0.552,288980,552,2,-121,1895,789,-0.05908203125,0.92529296875,0.38525390625,-17,37,16,-1.03759765625,2.25830078125,0.9765625,953,2662,-3504,12278,739,276,67.445068359375,4.0594482421875,1.51611328125,357,3.57,0
202,104722,0.557,288985,557,0,-28,2012,-381,-0.013671875,0.982421875,-0.18603515625,-12,3,4,-0.732421875,0.18310546875,0.244140625,-4262,2644,-1215,18352,263,-31087,100.810546875,1.4447021484375,-170.7659912109375,350,3.5,0
203,104723,0.558,288986,558,1,41,1992,-458,0.02001953125,0.97265625,-0.2236328125,-2,19,-12,-0.1220703125,1.15966796875,-0.732421875,-148,2434,5096,18769,-123,24216,103.1011962890625,-0.6756591796875,133.0224609375,355,3.55,0
204,104724,0.559,288987,559,2,-121,1895,790,-0.05908203125,0.92529296875,0.3857421875,-6,38,16,-0.3662109375,2.3193359375,0.9765625,970,2642,-3508,12277,738,276,67.4395751953125,4.053955078125,1.51611328125,357,3.57,0
205,104725,0.564,288992,564,0,-28,2012,-381,-0.013671875,0.982421875,-0.18603515625,-12,3,4,-0.732421875,0.18310546875,0.244140625,-4262,2644,-1215,18352,263,-31087,100.810546875,1.4447021484375,-170.7659912109375,350,3.5,0
206,104726,0.565,288993,565,1,38,1984,-463,0.0185546875,0.96875,-0.22607421875,-3,24,-9,-0.18310546875,1.46484375,-0.54931640625,-163,2440,5113,18769,-123,24216,103.1011962890625,-0.6756591796875,133.0224609375,355,3.55,0
207,104727,0.566,288994,566,2,-126,1895,783,-0.0615234375,0.92529296875,0.38232421875,-5,38,17,-0.30517578125,2.3193359375,1.03759765625,950,2682,-3473,12277,738,283,67.4395751953125,4.053955078125,1.5545654296875,358,3.58,0
208,104728,0.571,288999,571,0,-37,2000,-373,-0.01806640625,0.9765625,-0.18212890625,-12,10,1,-0.732421875,0.6103515625,0.06103515625,-4273,2643,-1288,18351,262,-31087,100.8050537109375,1.439208984375,-170.7659912109375,350,3.5,0
209,104729,0.572,289000,572,1,37,1980,-462,0.01806640625,0.966796875,-0.2255859375,-1,26,-4,-0.06103515625,1.5869140625,-0.244140625,-177,2445,5129,18769,-123,24216,103.1011962890625,-0.6756591796875,133.0224609375,355,3.55,0
210,104730,0.573,289001,573,2,-129,1895,779,-0.06298828125,0.92529296875,0.38037109375,-12,40,17,-0.732421875,2.44140625,1.03759765625,962,2661,-3405,12277,738,283,67.4395751953125,4.053955078125,1.5545654296875,358,3.58,0
211,104731,0.578,289006,578,0,-36,2000,-368,-0.017578125,0.9765625,-0.1796875,-5,13,1,-0.30517578125,0.79345703125,0.06103515625,-4278,2643,-1274,18351,262,-31087,100.8050537109375,1.439208984375,-170.7659912109375,349,3.49,0
212,104732,0.579,289007,579,1,23,1977,-462,0.01123046875,0.96533203125,-0.2255859375,3,22,-6,0.18310546875,1.3427734375,-0.3662109375,-206,2456,5173,18769,-123,24216,103.1011962890625,-0.6756591796875,133.0224609375,355,3.55,0
213,104733,0.58,289008,580,2,-133,1895,776,-0.06494140625,0.92529296875,0.37890625,-20,42,17,-1.220703125,2.5634765625,1.03759765625,941,2674,-3421,12276,738,283,67.43408203125,4.053955078125,1.5545654296875,358,3.58,0
214,104734,0.585,289013,585,0,-44,2009,-375,-0.021484375,0.98095703125,-0.18310546875,1,16,3,0.06103515625,0.9765625,0.18310546875,-4229,2617,-1272,18350,262,-31086,100.799560546875,1.439208984375,-170.760498046875,349,3.49,0
215,104735,0.586,289014,586,1,13,1975,-459,0.00634765625,0.96435546875,-0.22412109375,5,14,-6,0.30517578125,0.8544921875,-0.3662109375,-218,2461,5191,18769,-123,24216,103.1011962890625,-0.6756591796875,133.0224609375,355,3.55,0
216,104736,0.594,289022,594,2,-139,1891,778,-0.06787109375,0.92333984375,0.3798828125,-24,40,18,-1.46484375,2.44140625,1.0986328125,960,2701,-3414,12276,737,289,67.43408203125,4.0484619140625,1.5875244140625,358,3.58,0
217,104737,0.594,289022,594,0,-38,2011,-371,-0.0185546875,0.98193359375,-0.18115234375,-2,23,2,-0.1220703125,1.40380859375,0.1220703125,-4193,2607,-1270,18350,262,-31086,100.799560546875,1.439208984375,-170.760498046875,349,3.49,0
218,104738,0.594,289022,594,1,5,1981,-457,0.00244140625,0.96728515625,-0.22314453125,5,-2,-8,0.30517578125,-0.1220703125,-0.48828125,-233,2474,5244,18769,-123,24216,103.1011962890625,-0.6756591796875,133.0224609375,355,3.55,0
219,104739,0.594,289022,594,2,-140,1889,780,-0.068359375,0.92236328125,0.380859375,-18,40,18,-1.0986328125,2.44140625,1.0986328125,964,2684,-3447,12276,737,289,67.43408203125,4.0484619140625,1.5875244140625,358,3.58,0
220,104740,0.6,289028,600,1,2,1984,-454,0.0009765625,0.96875,-0.2216796875,5,-12,-11,0.30517578125,-0.732421875,-0.67138671875,-229,2460,5255,18769,-123,24217,103.1011962890625,-0.6756591796875,133.0279541015625,355,3.55,0
221,104741,0.601,289029,601,2,-140,1887,780,-0.068359375,0.92138671875,0.380859375,-10,38,19,-0.6103515625,2.3193359375,1.15966796875,967,2678,-3517,12276,737,289,67.43408203125,4.0484619140625,1.5875244140625,357,3.57,0
222,104742,0.606,289034,606,0,-42,2012,-377,-0.0205078125,0.982421875,-0.18408203125,-8,30,2,-0.48828125,1.8310546875,0.1220703125,-4239,2591,-1161,18349,261,-31085,100.7940673828125,1.4337158203125,-170.7550048828125,349,3.49,0
223,104743,0.607,289035,607,1,7,1988,-456,0.00341796875,0.970703125,-0.22265625,5,-13,-12,0.30517578125,-0.79345703125,-0.732421875,-224,2463,5238,18769,-123,24217,103.1011962890625,-0.6756591796875,133.0279541015625,356,3.56,0
224,104744,0.608,289036,608,2,-138,1888,778,-0.0673828125,0.921875,0.3798828125,-14,38,19,-0.8544921875,2.3193359375,1.15966796875,981,2661,-3534,12276,737,296,67.43408203125,4.0484619140625,1.6259765625,357,3.57,0
225,104745,0.613,289041,613,0,-43,2005,-381,-0.02099609375,0.97900390625,-0.18603515625,-6,29,3,-0.3662109375,1.77001953125,0.18310546875,-4252,2587,-1132,18349,261,-31085,100.7940673828125,1.4337158203125,-170.7550048828125,349,3.49,0
226,104746,0.614,289042,614,1,23,1996,-455,0.01123046875,0.974609375,-0.22216796875,7,-17,-20,0.42724609375,-1.03759765625,-1.220703125,-242,2465,5231,18769,-123,24217,103.1011962890625,-0.6756591796875,133.0279541015625,356,3.56,0
227,104747,0.615,289043,615,2,-136,1888,777,-0.06640625,0.921875,0.37939453125,-19,38,19,-1.15966796875,2.3193359375,1.15966796875,999,2653,-3526,12276,737,296,67.43408203125,4.0484619140625,1.6259765625,357,3.57,0
228,104748,0.62,289048,620,0,-43,2004,-386,-0.02099609375,0.978515625,-0.1884765625,-6,16,7,-0.3662109375,0.9765625,0.42724609375,-4254,2596,-1149,18349,261,-31084,100.7940673828125,1.4337158203125,-170.74951171875,349,3.49,0
229,104749,0.621,289049,621,1,28,1997,-458,0.013671875,0.97509765625,-0.2236328125,5,-15,-20,0.30517578125,-0.91552734375,-1.220703125,-232,2446,5204,18769,-123,24217,103.1011962890625,-0.6756591796875,133.0279541015625,356,3.56,0
230,104750,0.622,289050,622,2,-136,1886,780,-0.06640625,0.9208984375,0.380859375,-23,35,19,-1.40380859375,2.13623046875,1.15966796875,1002,2689,-3542,12275,736,296,67.4285888671875,4.04296875,1.6259765625,357,3.57,0
231,104751,0.627,289055,627,0,-44,2005,-381,-0.021484375,0.97900390625,-0.18603515625,-4,10,8,-0.244140625,0.6103515625,0.48828125,-4274,2623,-1123,18349,261,-31084,100.7940673828125,1.4337158203125,-170.74951171875,349,3.49,0
232,104752,0.628,289056,628,1,31,2000,-465,0.01513671875,0.9765625,-0.22705078125,2,-20,-16,0.1220703125,-1.220703125,-0.9765625,-209,2431,5212,18769,-123,24217,103.1011962890625,-0.6756591796875,133.0279541015625,356,3.56,0
233,104753,0.629,289057,629,2,-140,1884,784,-0.068359375,0.919921875,0.3828125,-16,33,19,-0.9765625,2.01416015625,1.15966796875,1007,2673,-3550,12275,736,302,67.4285888671875,4.04296875,1.658935546875,356,3.56,0
234,104754,0.634,289062,634,0,-44,2005,-381,-0.021484375,0.97900390625,-0.18603515625,-4,10,8,-0.244140625,0.6103515625,0.48828125,-4274,2623,-1123,18349,261,-31084,100.7940673828125,1.4337158203125,-170.74951171875,349,3.49,0
235,104755,0.635,289063,635,1,52,1992,-470,0.025390625,0.97265625,-0.2294921875,0,-11,-12,0.0,-0.67138671875,-0.732421875,-207,2425,5220,18769,-123,24217,103.1011962890625,-0.6756591796875,133.0279541015625,356,3.56,0
236,104756,0.636,289064,636,2,-148,1882,790,-0.072265625,0.9189453125,0.3857421875,-3,25,19,-0.18310546875,1.52587890625,1.15966796875,1019,2683,-3527,12274,736,302,67.423095703125,4.04296875,1.658935546875,356,3.56,0
237,104757,0.641,289069,641,0,-52,2011,-369,-0.025390625,0.98193359375,-0.18017578125,-6,2,11,-0.3662109375,0.1220703125,0.67138671875,-4311,2653,-1217,18348,261,-31084,100.78857421875,1.4337158203125,-170.74951171875,349,3.49,0
238,104758,0.643,289071,643,2,-152,1881,791,-0.07421875,0.91845703125,0.38623046875,1,22,19,0.06103515625,1.3427734375,1.15966796875,1028,2686,-3537,12274,736,302,67.423095703125,4.04296875,1.658935546875,356,3.56,0
239,104759,0.648,289076,648,0,-56,2009,-366,-0.02734375,0.98095703125,-0.1787109375,-7,0,11,-0.42724609375,0.0,0.67138671875,-4303,2676,-1235,18348,261,-31084,100.78857421875,1.4337158203125,-170.74951171875,349,3.49,0
240,104760,0.65,289078,650,2,-155,1881,790,-0.07568359375,0.91845703125,0.3857421875,3,17,18,0.18310546875,1.03759765625,1.0986328125,1002,2647,-3532,12274,736,309,67.423095703125,4.04296875,1.6973876953125,356,3.56,0
241,104761,0.658,289086,658,0,-66,2016,-359,-0.0322265625,0.984375,-0.17529296875,-1,0,16,-0.06103515625,0.0,0.9765625,-4294,2663,-1238,18348,261,-31084,100.78857421875,1.4337158203125,-170.74951171875,348,3.48,0
242,104762,0.658,289086,658,1,64,2000,-491,0.03125,0.9765625,-0.23974609375,9,-10,13,0.54931640625,-0.6103515625,0.79345703125,-183,2407,5209,18769,-123,24217,103.1011962890625,-0.6756591796875,133.0279541015625,356,3.56,0
243,104763,0.658,289086,658,2,-163,1884,788,-0.07958984375,0.919921875,0.384765625,-2,6,16,-0.1220703125,0.3662109375,0.9765625,996,2672,-3532,12274,736,309,67.423095703125,4.04296875,1.6973876953125,356,3.56,0
244,104764,0.663,289091,663,1,50,2002,-491,0.0244140625,0.9775390625,-0.23974609375,3,-14,16,0.18310546875,-0.8544921875,0.9765625,-161,2399,5211,18770,-124,24217,103.106689453125,-0.68115234375,133.0279541015625,356,3.56,0
245,104765,0.664,289092,664,2,-166,1886,787,-0.0810546875,0.9208984375,0.38427734375,-5,-1,15,-0.30517578125,-0.06103515625,0.91552734375,983,2651,-3527,12274,736,309,67.423095703125,4.04296875,1.6973876953125,356,3.56,0
246,104766,0.669,289097,669,0,-79,2021,-357,-0.03857421875,0.98681640625,-0.17431640625,0,-2,14,0.0,-0.1220703125,0.8544921875,-4293,2640,-1235,18347,261,-31083,100.7830810546875,1.4337158203125,-170.7440185546875,348,3.48,0
247,104767,0.671,289099,671,2,-169,1888,787,-0.08251953125,0.921875,0.38427734375,-5,-7,12,-0.30517578125,-0.42724609375,0.732421875,972,2612,-3517,12274,736,315,67.423095703125,4.04296875,1.7303466796875,356,3.56,0
248,104768,0.676,289104,676,0,-85,2022,-350,-0.04150390625,0.9873046875,-0.1708984375,-5,-10,10,-0.30517578125,-0.6103515625,0.6103515625,-4271,2667,-1267,18347,261,-31083,100.7830810546875,1.4337158203125,-170.7440185546875,348,3.48,0
249,104769,0.677,289105,677,1,26,1986,-480,0.0126953125,0.9697265625,-0.234375,0,-28,22,0.0,-1.708984375,1.3427734375,-158,2419,5203,18770,-124,24217,103.106689453125,-0.68115234375,133.0279541015625,356,3.56,0
250,104770,0.678,289106,678,2,-173,1887,788,-0.08447265625,0.92138671875,0.384765625,-2,-19,7,-0.1220703125,-1.15966796875,0.42724609375,995,2644,-3521,12273,736,315,67.4176025390625,4.04296875,1.7303466796875,356,3.56,0
251,104771,0.683,289111,683,0,-86,2020,-353,-0.0419921875,0.986328125,-0.17236328125,-8,-19,10,-0.48828125,-1.15966796875,0.6103515625,-4259,2665,-1245,18346,261,-31083,100.777587890625,1.4337158203125,-170.7440185546875,348,3.48,0
252,104772,0.684,289112,684,1,15,1981,-467,0.00732421875,0.96728515625,-0.22802734375,-11,-23,23,-0.67138671875,-1.40380859375,1.40380859375,-163,2410,5165,18770,-124,24217,103.106689453125,-0.68115234375,133.0279541015625,356,3.56,0
253,104773,0.685,289113,685,2,-172,1885,788,-0.083984375,0.92041015625,0.384765625,0,-24,4,0.0,-1.46484375,0.244140625,991,2658,-3510,12273,736,315,67.4176025390625,4.04296875,1.7303466796875,356,3.56,0
254,104774,0.69,289118,690,0,-83,2014,-350,-0.04052734375,0.9833984375,-0.1708984375,-15,-34,9,-0.91552734375,-2.0751953125,0.54931640625,-4273,2641,-1167,18346,261,-31084,100.777587890625,1.4337158203125,-170.74951171875,348,3.48,0
255,104775,0.691,289119,691,1,16,1979,-466,0.0078125,0.96630859375,-0.2275390625,-13,-23,18,-0.79345703125,-1.40380859375,1.0986328125,-169,2407,5163,18770,-124,24217,103.106689453125,-0.68115234375,133.0279541015625,356,3.56,0
256,104776,0.703,289131,703,2,-167,1879,788,-0.08154296875,0.91748046875,0.384765625,3,-34,-3,0.18310546875,-2.0751953125,-0.18310546875,984,2678,-3481,12273,736,322,67.4176025390625,4.04296875,1.768798828125,356,3.56,0
257,104777,0.704,289132,704,0,-78,2004,-352,-0.0380859375,0.978515625,-0.171875,-19,-47,7,-1.15966796875,-2.86865234375,0.42724609375,-4250,2650,-1203,18344,262,-31088,100.7666015625,1.439208984375,-170.771484375,348,3.48,0
258,104778,0.705,289133,705,1,6,1980,-474,0.0029296875,0.966796875,-0.2314453125,-16,-33,16,-0.9765625,-2.01416015625,0.9765625,-163,2420,5155,18770,-124,24217,103.106689453125,-0.68115234375,133.0279541015625,357,3.57,0
259,104779,0.706,289134,706,2,-159,1878,790,-0.07763671875,0.9169921875,0.3857421875,0,-38,-8,0.0,-2.3193359375,-0.48828125,987,2667,-3532,12272,736,322,67.412109375,4.04296875,1.768798828125,356,3.56,0
260,104780,0.711,289139,711,0,-73,2005,-350,-0.03564453125,0.97900390625,-0.1708984375,-18,-53,9,-1.0986328125,-3.23486328125,0.54931640625,-4230,2660,-1194,18343,263,-31092,100.7611083984375,1.4447021484375,-170.79345703125,348,3.48,0
261,104781,0.712,289140,712,1,-1,1979,-476,-0.00048828125,0.96630859375,-0.232421875,-15,-38,16,-0.91552734375,-2.3193359375,0.9765625,-184,2425,5167,18770,-124,24217,103.106689453125,-0.68115234375,133.0279541015625,357,3.57,0
262,104782,0.713,289141,713,2,-155,1879,790,-0.07568359375,0.91748046875,0.3857421875,-1,-45,-11,-0.06103515625,-2.74658203125,-0.67138671875,980,2707,-3494,12272,736,328,67.412109375,4.04296875,1.8017578125,355,3.55,0
263,104783,0.718,289146,718,0,-73,2005,-351,-0.03564453125,0.97900390625,-0.17138671875,-18,-58,12,-1.0986328125,-3.5400390625,0.732421875,-4226,2665,-1207,18342,263,-31094,100.755615234375,1.4447021484375,-170.804443359375,348,3.48,0
264,104784,0.719,289147,719,1,1,1972,-489,0.00048828125,0.962890625,-0.23876953125,-8,-47,15,-0.48828125,-2.86865234375,0.91552734375,-180,2438,5179,18771,-124,24218,103.1121826171875,-0.68115234375,133.033447265625,357,3.57,0
265,104785,0.72,289148,720,2,-155,1878,790,-0.07568359375,0.9169921875,0.3857421875,0,-47,-13,0.0,-2.86865234375,-0.79345703125,975,2702,-3477,12271,737,328,67.4066162109375,4.0484619140625,1.8017578125,355,3.55,0
266,104786,0.725,289153,725,0,-73,2005,-351,-0.03564453125,0.97900390625,-0.17138671875,-18,-58,12,-1.0986328125,-3.5400390625,0.732421875,-4226,2665,-1207,18342,263,-31094,100.755615234375,1.4447021484375,-170.804443359375,348,3.48,0
267,104787,0.726,289154,726,1,2,1970,-494,0.0009765625,0.9619140625,-0.2412109375,-10,-50,17,-0.6103515625,-3.0517578125,1.03759765625,-154,2439,5201,18771,-124,24218,103.1121826171875,-0.68115234375,133.033447265625,357,3.57,0
268,104788,0.727,289155,727,2,-158,1878,792,-0.0771484375,0.9169921875,0.38671875,4,-54,-13,0.244140625,-3.2958984375,-0.79345703125,971,2691,-3533,12271,737,334,67.4066162109375,4.0484619140625,1.834716796875,355,3.55,0
269,104789,0.732,289160,732,0,-67,2008,-355,-0.03271484375,0.98046875,-0.17333984375,-24,-61,11,-1.46484375,-3.72314453125,0.67138671875,-4250,2661,-1209,18339,264,-31103,100.7391357421875,1.4501953125,-170.8538818359375,348,3.48,0
270,104790,0.733,289161,733,1,6,1971,-490,0.0029296875,0.96240234375,-0.2392578125,-8,-50,15,-0.48828125,-3.0517578125,0.91552734375,-172,2445,5178,18771,-124,24218,103.1121826171875,-0.68115234375,133.033447265625,357,3.57,0
271,104791,0.734,289162,734,2,-159,1878,792,-0.07763671875,0.9169921875,0.38671875,8,-57,-13,0.48828125,-3.47900390625,-0.79345703125,947,2701,-3554,12271,737,334,67.4066162109375,4.0484619140625,1.834716796875,355,3.55,0
272,104792,0.739,289167,739,0,-62,2006,-366,-0.0302734375,0.9794921875,-0.1787109375,-26,-61,12,-1.5869140625,-3.72314453125,0.732421875,-4239,2663,-1193,18338,264,-31105,100.733642578125,1.4501953125,-170.8648681640625,348,3.48,0
273,104793,0.74,289168,740,1,24,1971,-487,0.01171875,0.96240234375,-0.23779296875,-7,-49,14,-0.42724609375,-2.99072265625,0.8544921875,-154,2462,5176,18771,-124,24218,103.1121826171875,-0.68115234375,133.033447265625,357,3.57,0
274,104794,0.741,289169,741,2,-160,1878,790,-0.078125,0.9169921875,0.3857421875,10,-60,-13,0.6103515625,-3.662109375,-0.79345703125,945,2708,-3570,12270,737,334,67.401123046875,4.0484619140625,1.834716796875,355,3.55,0
275,104795,0.746,289174,746,0,-50,2003,-385,-0.0244140625,0.97802734375,-0.18798828125,-19,-56,11,-1.15966796875,-3.41796875,0.67138671875,-4245,2674,-1218,18336,264,-31110,100.72265625,1.4501953125,-170.892333984375,348,3.48,0
276,104796,0.748,289176,748,2,-160,1881,785,-0.078125,0.91845703125,0.38330078125,6,-62,-12,0.3662109375,-3.7841796875,-0.732421875,965,2758,-3559,12270,737,340,67.401123046875,4.0484619140625,1.86767578125,355,3.55,0
277,104797,0.753,289181,753,0,-45,1998,-392,-0.02197265625,0.9755859375,-0.19140625,-16,-54,11,-0.9765625,-3.2958984375,0.67138671875,-4248,2672,-1223,18336,264,-31112,100.72265625,1.4501953125,-170.9033203125,348,3.48,0
278,104798,0.754,289182,754,1,39,1972,-493,0.01904296875,0.962890625,-0.24072265625,3,-56,13,0.18310546875,-3.41796875,0.79345703125,-159,2399,5180,18771,-124,24218,103.1121826171875,-0.68115234375,133.033447265625,357,3.57,0
279,104799,0.761,289189,761,2,-159,1883,782,-0.07763671875,0.91943359375,0.3818359375,4,-63,-11,0.244140625,-3.84521484375,-0.67138671875,960,2779,-3538,12270,737,340,67.401123046875,4.0484619140625,1.86767578125,355,3.55,0
280,104800,0.761,289189,761,0,-45,1998,-392,-0.02197265625,0.9755859375,-0.19140625,-16,-54,11,-0.9765625,-3.2958984375,0.67138671875,-4248,2672,-1223,18336,264,-31112,100.72265625,1.4501953125,-170.9033203125,348,3.48,0
281,104801,0.761,289189,761,1,45,1978,-494,0.02197265625,0.9658203125,-0.2412109375,7,-58,11,0.42724609375,-3.5400390625,0.67138671875,-182,2411,5180,18772,-124,24219,103.11767578125,-0.68115234375,133.0389404296875,357,3.57,0
282,104802,0.762,289190,762,2,-153,1888,781,-0.07470703125,0.921875,0.38134765625,-1,-63,-10,-0.06103515625,-3.84521484375,-0.6103515625,961,2749,-3526,12269,737,340,67.3956298828125,4.0484619140625,1.86767578125,355,3.55,0
283,104803,0.768,289196,768,1,52,1982,-490,0.025390625,0.9677734375,-0.2392578125,7,-58,11,0.42724609375,-3.5400390625,0.67138671875,-164,2392,5208,18772,-124,24219,103.11767578125,-0.68115234375,133.0389404296875,357,3.57,0
284,104804,0.769,289197,769,2,-149,1891,783,-0.07275390625,0.92333984375,0.38232421875,-1,-62,-11,-0.06103515625,-3.7841796875,-0.67138671875,967,2752,-3488,12269,737,347,67.3956298828125,4.0484619140625,1.9061279296875,355,3.55,0
285,104805,0.774,289202,774,0,-14,2018,-411,-0.0068359375,0.9853515625,-0.20068359375,-5,-54,14,-0.30517578125,-3.2958984375,0.8544921875,-4238,2660,-1208,18335,265,-31121,100.7171630859375,1.4556884765625,-170.9527587890625,348,3.48,0
286,104806,0.775,289203,775,1,62,1993,-484,0.0302734375,0.97314453125,-0.236328125,2,-52,9,0.1220703125,-3.173828125,0.54931640625,-203,2381,5196,18772,-124,24219,103.11767578125,-0.68115234375,133.0389404296875,357,3.57,0
287,104807,0.776,289204,776,2,-146,1894,785,-0.0712890625,0.9248046875,0.38330078125,1,-63,-11,0.06103515625,-3.84521484375,-0.67138671875,977,2739,-3463,12269,737,347,67.3956298828125,4.0484619140625,1.9061279296875,355,3.55,0
288,104808,0.781,289209,781,0,-7,2018,-407,-0.00341796875,0.9853515625,-0.19873046875,-11,-57,10,-0.67138671875,-3.47900390625,0.6103515625,-4236,2638,-1170,18335,266,-31125,100.7171630859375,1.461181640625,-170.9747314453125,349,3.49,0
289,104809,0.782,289210,782,1,64,1994,-479,0.03125,0.9736328125,-0.23388671875,7,-53,11,0.42724609375,-3.23486328125,0.67138671875,-220,2389,5230,18773,-124,24219,103.1231689453125,-0.68115234375,133.0389404296875,357,3.57,0
290,104810,0.783,289211,783,2,-141,1901,787,-0.06884765625,0.92822265625,0.38427734375,0,-61,-10,0.0,-3.72314453125,-0.6103515625,966,2720,-3495,12269,737,346,67.3956298828125,4.0484619140625,1.900634765625,355,3.55,0
291,104811,0.788,289216,788,0,0,2017,-400,0.0,0.98486328125,-0.1953125,-11,-62,11,-0.67138671875,-3.7841796875,0.67138671875,-4231,2630,-1179,18335,266,-31128,100.7171630859375,1.461181640625,-170.9912109375,349,3.49,0
292,104812,0.789,289217,789,1,70,1996,-473,0.0341796875,0.974609375,-0.23095703125,5,-45,11,0.30517578125,-2.74658203125,0.67138671875,-205,2372,5236,18773,-124,24219,103.1231689453125,-0.68115234375,133.0389404296875,357,3.57,0
293,104813,0.79,289218,790,2,-140,1905,787,-0.068359375,0.93017578125,0.38427734375,-2,-60,-10,-0.1220703125,-3.662109375,-0.6103515625,972,2709,-3514,12269,737,353,67.3956298828125,4.0484619140625,1.9390869140625,355,3.55,0
294,104814,0.795,289223,795,0,8,2013,-400,0.00390625,0.98291015625,-0.1953125,-11,-63,7,-0.67138671875,-3.84521484375,0.42724609375,-4248,2636,-1161,18334,267,-31131,100.711669921875,1.4666748046875,-171.0076904296875,349,3.49,0
295,104815,0.796,289224,796,1,74,1997,-459,0.0361328125,0.97509765625,-0.22412109375,3,-31,10,0.18310546875,-1.89208984375,0.6103515625,-175,2382,5250,18772,-124,24218,103.11767578125,-0.68115234375,133.033447265625,357,3.57,0
296,104816,0.797,289225,797,2,-139,1907,787,-0.06787109375,0.93115234375,0.38427734375,-5,-59,-10,-0.30517578125,-3.60107421875,-0.6103515625,990,2692,-3514,12269,737,353,67.3956298828125,4.0484619140625,1.9390869140625,355,3.55,0
297,104817,0.803,289231,803,1,72,1994,-457,0.03515625,0.9736328125,-0.22314453125,-4,-27,9,-0.244140625,-1.64794921875,0.54931640625,-165,2370,5247,18772,-125,24217,103.11767578125,-0.6866455078125,133.0279541015625,357,3.57,0
298,104818,0.804,289232,804,2,-137,1906,790,-0.06689453125,0.9306640625,0.3857421875,-8,-51,-8,-0.48828125,-3.11279296875,-0.48828125,1000,2692,-3489,12268,737,353,67.39013671875,4.0484619140625,1.9390869140625,355,3.55,0
299,104819,0.809,289237,809,0,15,2009,-389,0.00732421875,0.98095703125,-0.18994140625,-6,-73,7,-0.3662109375,-4.45556640625,0.42724609375,-4265,2623,-1208,18334,269,-31141,100.711669921875,1.4776611328125,-171.0626220703125,350,3.5,0
300,104820,0.81,289238,810,1,71,1986,-450,0.03466796875,0.9697265625,-0.2197265625,-13,-30,8,-0.79345703125,-1.8310546875,0.48828125,-154,2369,5219,18770,-125,24214,103.106689453125,-0.6866455078125,133.011474609375,357,3.57,0
301,104821,0.811,289239,811,2,-136,1901,794,-0.06640625,0.92822265625,0.3876953125,-5,-45,-7,-0.30517578125,-2.74658203125,-0.42724609375,995,2676,-3527,12268,737,359,67.39013671875,4.0484619140625,1.9720458984375,355,3.55,0
302,104822,0.817,289245,817,1,70,1983,-452,0.0341796875,0.96826171875,-0.220703125,-11,-31,9,-0.67138671875,-1.89208984375,0.54931640625,-154,2369,5197,18769,-125,24213,103.1011962890625,-0.6866455078125,133.0059814453125,357,3.57,0
303,104823,0.818,289246,818,2,-136,1893,803,-0.06640625,0.92431640625,0.39208984375,12,-41,-6,0.732421875,-2.50244140625,-0.3662109375,1000,2670,-3534,12267,737,359,67.3846435546875,4.0484619140625,1.9720458984375,355,3.55,0
304,104824,0.825,289253,825,0,17,2003,-374,0.00830078125,0.97802734375,-0.1826171875,-10,-80,7,-0.6103515625,-4.8828125,0.42724609375,-4268,2628,-1197,18334,270,-31147,100.711669921875,1.483154296875,-171.0955810546875,350,3.5,0
305,104825,0.825,289253,825,1,73,1980,-453,0.03564453125,0.966796875,-0.22119140625,-13,-32,9,-0.79345703125,-1.953125,0.54931640625,-125,2375,5190,18768,-125,24211,103.095703125,-0.6866455078125,132.9949951171875,357,3.57,0
306,104826,0.825,289253,825,2,-137,1889,804,-0.06689453125,0.92236328125,0.392578125,20,-37,-5,1.220703125,-2.25830078125,-0.30517578125,999,2681,-3522,12267,737,359,67.3846435546875,4.0484619140625,1.9720458984375,355,3.55,0
307,104827,0.831,289259,831,1,73,1973,-462,0.03564453125,0.96337890625,-0.2255859375,-11,-38,14,-0.67138671875,-2.3193359375,0.8544921875,-155,2377,5205,18767,-126,24208,103.0902099609375,-0.692138671875,132.978515625,357,3.57,0
308,104828,0.832,289260,832,2,-138,1886,802,-0.0673828125,0.9208984375,0.3916015625,23,-34,-5,1.40380859375,-2.0751953125,-0.30517578125,999,2683,-3556,12267,737,365,67.3846435546875,4.0484619140625,2.0050048828125,355,3.55,0
309,104829,0.837,289265,837,0,13,1999,-372,0.00634765625,0.97607421875,-0.181640625,-13,-75,7,-0.79345703125,-4.57763671875,0.42724609375,-4256,2621,-1213,18332,272,-31157,100.70068359375,1.494140625,-171.1505126953125,350,3.5,0
310,104830,0.838,289266,838,1,71,1975,-464,0.03466796875,0.96435546875,-0.2265625,-9,-34,14,-0.54931640625,-2.0751953125,0.8544921875,-118,2375,5200,18766,-126,24207,103.084716796875,-0.692138671875,132.9730224609375,357,3.57,0
311,104831,0.839,289267,839,2,-140,1885,794,-0.068359375,0.92041015625,0.3876953125,13,-32,-3,0.79345703125,-1.953125,-0.18310546875,1010,2704,-3520,12266,737,365,67.379150390625,4.0484619140625,2.0050048828125,355,3.55,0
312,104832,0.845,289273,845,1,70,1979,-465,0.0341796875,0.96630859375,-0.22705078125,1,-26,12,0.06103515625,-1.5869140625,0.732421875,-145,2374,5192,18766,-127,24204,103.084716796875,-0.6976318359375,132.95654296875,357,3.57,0
313,104833,0.846,289274,846,2,-140,1886,790,-0.068359375,0.9208984375,0.3857421875,1,-30,-3,0.06103515625,-1.8310546875,-0.18310546875,1000,2708,-3510,12266,737,365,67.379150390625,4.0484619140625,2.0050048828125,355,3.55,0
314,104834,0.852,289280,852,1,65,1988,-467,0.03173828125,0.970703125,-0.22802734375,0,-23,9,0.0,-1.40380859375,0.54931640625,-148,2369,5181,18766,-127,24203,103.084716796875,-0.6976318359375,132.9510498046875,357,3.57,0
315,104835,0.853,289281,853,2,-137,1883,791,-0.06689453125,0.91943359375,0.38623046875,-12,-27,-1,-0.732421875,-1.64794921875,-0.06103515625,988,2689,-3526,12266,737,371,67.379150390625,4.0484619140625,2.0379638671875,355,3.55,0
316,104836,0.859,289287,859,1,58,1986,-475,0.0283203125,0.9697265625,-0.23193359375,2,-23,8,0.1220703125,-1.40380859375,0.48828125,-132,2378,5189,18766,-127,24202,103.084716796875,-0.6976318359375,132.945556640625,357,3.57,0
317,104837,0.86,289288,860,2,-135,1881,793,-0.06591796875,0.91845703125,0.38720703125,-10,-24,0,-0.6103515625,-1.46484375,0.0,965,2690,-3518,12265,736,371,67.3736572265625,4.04296875,2.0379638671875,355,3.55,0
318,104838,0.866,289294,866,1,51,1994,-475,0.02490234375,0.9736328125,-0.23193359375,1,-18,8,0.06103515625,-1.0986328125,0.48828125,-108,2369,5211,18765,-127,24201,103.0792236328125,-0.6976318359375,132.9400634765625,357,3.57,0
319,104839,0.867,289295,867,2,-134,1879,795,-0.0654296875,0.91748046875,0.38818359375,-7,-22,0,-0.42724609375,-1.3427734375,0.0,968,2683,-3520,12265,736,371,67.3736572265625,4.04296875,2.0379638671875,355,3.55,0
320,104840,0.88,289308,880,0,0,2011,-379,0.0,0.98193359375,-0.18505859375,-24,0,12,-1.46484375,0.0,0.732421875,-4230,2638,-1258,18326,271,-31163,100.667724609375,1.4886474609375,-171.1834716796875,351,3.51,0
321,104841,0.881,289309,881,1,51,2002,-464,0.02490234375,0.9775390625,-0.2265625,-8,9,4,-0.48828125,0.54931640625,0.244140625,-106,2367,5185,18763,-128,24203,103.0682373046875,-0.703125,132.9510498046875,357,3.57,0
322,104842,0.881,289309,881,2,-136,1880,796,-0.06640625,0.91796875,0.388671875,-4,-16,1,-0.244140625,-0.9765625,0.06103515625,951,2685,-3555,12264,736,377,67.3681640625,4.04296875,2.0709228515625,355,3.55,0
323,104843,0.887,289315,887,1,44,1997,-463,0.021484375,0.97509765625,-0.22607421875,-12,12,7,-0.732421875,0.732421875,0.42724609375,-118,2357,5184,18762,-129,24204,103.062744140625,-0.7086181640625,132.95654296875,357,3.57,0
324,104844,0.888,289316,888,2,-140,1885,795,-0.068359375,0.92041015625,0.38818359375,-5,-12,2,-0.30517578125,-0.732421875,0.1220703125,964,2679,-3518,12264,736,383,67.3681640625,4.04296875,2.1038818359375,355,3.55,0
325,104845,0.894,289322,894,1,44,1997,-459,0.021484375,0.97509765625,-0.22412109375,-16,16,6,-0.9765625,0.9765625,0.3662109375,-109,2382,5174,18761,-130,24205,103.0572509765625,-0.714111328125,132.9620361328125,357,3.57,0
326,104846,0.895,289323,895,2,-142,1887,795,-0.0693359375,0.92138671875,0.38818359375,-3,-11,4,-0.18310546875,-0.67138671875,0.244140625,955,2705,-3522,12264,736,383,67.3681640625,4.04296875,2.1038818359375,355,3.55,0
327,104847,0.9,289328,900,0,-31,2009,-386,-0.01513671875,0.98095703125,-0.1884765625,-26,3,8,-1.5869140625,0.18310546875,0.48828125,-4200,2673,-1198,18322,269,-31158,100.645751953125,1.4776611328125,-171.156005859375,349,3.49,0
328,104848,0.901,289329,901,1,39,1983,-445,0.01904296875,0.96826171875,-0.21728515625,-29,19,3,-1.77001953125,1.15966796875,0.18310546875,-129,2405,5190,18757,-131,24208,103.0352783203125,-0.7196044921875,132.978515625,356,3.56,0
329,104849,0.902,289330,902,2,-145,1888,795,-0.07080078125,0.921875,0.38818359375,-1,-10,5,-0.06103515625,-0.6103515625,0.30517578125,943,2709,-3539,12263,736,383,67.3626708984375,4.04296875,2.1038818359375,355,3.55,0
330,104850,0.908,289336,908,1,44,1980,-444,0.021484375,0.966796875,-0.216796875,-26,16,1,-1.5869140625,0.9765625,0.06103515625,-136,2384,5215,18756,-131,24209,103.02978515625,-0.7196044921875,132.9840087890625,356,3.56,0
331,104851,0.909,289337,909,2,-147,1889,792,-0.07177734375,0.92236328125,0.38671875,-2,-8,9,-0.1220703125,-0.48828125,0.54931640625,949,2696,-3524,12263,736,389,67.3626708984375,4.04296875,2.1368408203125,355,3.55,0
332,104852,0.915,289343,915,1,41,1972,-445,0.02001953125,0.962890625,-0.21728515625,-27,16,-1,-1.64794921875,0.9765625,-0.06103515625,-134,2375,5214,18754,-131,24210,103.018798828125,-0.7196044921875,132.989501953125,356,3.56,0
333,104853,0.916,289344,916,2,-147,1890,791,-0.07177734375,0.9228515625,0.38623046875,-4,-6,10,-0.244140625,-0.3662109375,0.6103515625,940,2713,-3519,12263,736,389,67.3626708984375,4.04296875,2.1368408203125,355,3.55,0
334,104854,0.921,289349,921,0,-42,2007,-384,-0.0205078125,0.97998046875,-0.1875,-25,-7,0,-1.52587890625,-0.42724609375,0.0,-4199,2679,-1199,18318,270,-31157,100.623779296875,1.483154296875,-171.1505126953125,349,3.49,0
335,104855,0.922,289350,922,1,46,1973,-454,0.0224609375,0.96337890625,-0.2216796875,-20,7,-4,-1.220703125,0.42724609375,-0.244140625,-133,2394,5216,18755,-136,24212,103.0242919921875,-0.7470703125,133.00048828125,356,3.56,0
336,104856,0.923,289351,923,2,-146,1887,791,-0.0712890625,0.92138671875,0.38623046875,0,-2,15,0.0,-0.1220703125,0.91552734375,950,2713,-3502,12262,736,389,67.357177734375,4.04296875,2.1368408203125,355,3.55,0
337,104857,0.928,289356,928,0,-40,2004,-384,-0.01953125,0.978515625,-0.1875,-17,-7,-7,-1.03759765625,-0.42724609375,-0.42724609375,-4172,2643,-1223,18316,272,-31155,100.61279296875,1.494140625,-171.1395263671875,348,3.48,0
338,104858,0.929,289357,929,1,50,1974,-456,0.0244140625,0.9638671875,-0.22265625,-15,1,-3,-0.91552734375,0.06103515625,-0.18310546875,-125,2404,5226,18755,-136,24212,103.0242919921875,-0.7470703125,133.00048828125,356,3.56,0
339,104859,0.93,289358,930,2,-147,1886,792,-0.07177734375,0.9208984375,0.38671875,0,-2,17,0.0,-0.1220703125,1.03759765625,957,2740,-3466,12262,735,395,67.357177734375,4.0374755859375,2.1697998046875,355,3.55,0
340,104860,0.937,289365,937,0,-37,2008,-388,-0.01806640625,0.98046875,-0.189453125,-14,-6,-6,-0.8544921875,-0.3662109375,-0.3662109375,-4179,2650,-1212,18316,272,-31155,100.61279296875,1.494140625,-171.1395263671875,348,3.48,0
341,104861,0.937,289365,937,1,61,1981,-475,0.02978515625,0.96728515625,-0.23193359375,-3,0,-10,-0.18310546875,0.0,-0.6103515625,-145,2413,5245,18755,-136,24212,103.0242919921875,-0.7470703125,133.00048828125,356,3.56,0
342,104862,0.937,289365,937,2,-146,1884,793,-0.0712890625,0.919921875,0.38720703125,-1,-2,19,-0.06103515625,-0.1220703125,1.15966796875,973,2730,-3476,12262,735,395,67.357177734375,4.0374755859375,2.1697998046875,355,3.55,0
343,104863,0.943,289371,943,1,66,1985,-481,0.0322265625,0.96923828125,-0.23486328125,4,0,-7,0.244140625,0.0,-0.42724609375,-126,2405,5294,18755,-138,24212,103.0242919921875,-0.758056640625,133.00048828125,356,3.56,0
344,104864,0.944,289372,944,2,-144,1881,797,-0.0703125,0.91845703125,0.38916015625,-4,0,21,-0.244140625,0.0,1.28173828125,983,2700,-3502,12262,735,394,67.357177734375,4.0374755859375,2.164306640625,355,3.55,0
345,104865,0.949,289377,949,0,-36,2008,-381,-0.017578125,0.98046875,-0.18603515625,-8,-2,-5,-0.48828125,-0.1220703125,-0.30517578125,-4191,2595,-1223,18316,274,-31153,100.61279296875,1.505126953125,-171.1285400390625,348,3.48,0
346,104866,0.95,289378,950,1,66,1991,-485,0.0322265625,0.97216796875,-0.23681640625,5,3,-6,0.30517578125,0.18310546875,-0.3662109375,-143,2427,5256,18755,-138,24212,103.0242919921875,-0.758056640625,133.00048828125,356,3.56,0
347,104867,0.951,289379,951,2,-143,1879,800,-0.06982421875,0.91748046875,0.390625,-3,0,21,-0.18310546875,0.0,1.28173828125,984,2691,-3506,12261,735,400,67.3516845703125,4.0374755859375,2.197265625,355,3.55,0
348,104868,0.958,289386,958,2,-143,1877,803,-0.06982421875,0.91650390625,0.39208984375,2,1,21,0.1220703125,0.06103515625,1.28173828125,984,2710,-3530,12261,735,400,67.3516845703125,4.0374755859375,2.197265625,355,3.55,0
349,104869,0.964,289392,964,1,73,2008,-483,0.03564453125,0.98046875,-0.23583984375,-6,10,3,-0.3662109375,0.6103515625,0.18310546875,-171,2422,5250,18755,-139,24213,103.0242919921875,-0.7635498046875,133.0059814453125,356,3.56,0
350,104870,0.965,289393,965,2,-145,1875,804,-0.07080078125,0.91552734375,0.392578125,9,1,20,0.54931640625,0.06103515625,1.220703125,982,2690,-3545,12260,735,400,67.34619140625,4.0374755859375,2.197265625,355,3.55,0
351,104871,0.97,289398,970,0,-30,2013,-379,-0.0146484375,0.98291015625,-0.18505859375,-13,-4,-7,-0.79345703125,-0.244140625,-0.42724609375,-4196,2581,-1197,18315,277,-31149,100.6072998046875,1.5216064453125,-171.1065673828125,347,3.47,0
352,104872,0.971,289399,971,1,79,2008,-475,0.03857421875,0.98046875,-0.23193359375,-17,21,10,-1.03759765625,1.28173828125,0.6103515625,-136,2436,5208,18754,-140,24214,103.018798828125,-0.76904296875,133.011474609375,356,3.56,0
353,104873,0.972,289400,972,2,-147,1874,803,-0.07177734375,0.9150390625,0.39208984375,10,2,18,0.6103515625,0.1220703125,1.0986328125,994,2704,-3531,12260,735,406,67.34619140625,4.0374755859375,2.230224609375,355,3.55,0
354,104874,0.977,289405,977,0,-30,2013,-379,-0.0146484375,0.98291015625,-0.18505859375,-13,-4,-7,-0.79345703125,-0.244140625,-0.42724609375,-4196,2581,-1197,18315,277,-31149,100.6072998046875,1.5216064453125,-171.1065673828125,347,3.47,0
355,104875,0.978,289406,978,1,78,2008,-460,0.0380859375,0.98046875,-0.224609375,-25,28,10,-1.52587890625,1.708984375,0.6103515625,-131,2427,5216,18752,-141,24216,103.0078125,-0.7745361328125,133.0224609375,356,3.56,0
356,104876,0.979,289407,979,2,-154,1871,804,-0.0751953125,0.91357421875,0.392578125,13,0,14,0.79345703125,0.0,0.8544921875,993,2669,-3570,12259,735,406,67.3406982421875,4.0374755859375,2.230224609375,355,3.55,0
357,104877,0.984,289412,984,0,-25,2020,-375,-0.01220703125,0.986328125,-0.18310546875,-18,-27,-3,-1.0986328125,-1.64794921875,-0.18310546875,-4211,2596,-1189,18306,269,-31142,100.557861328125,1.4776611328125,-171.068115234375,348,3.48,0
358,104878,0.985,289413,985,1,75,2004,-457,0.03662109375,0.978515625,-0.22314453125,-24,31,13,-1.46484375,1.89208984375,0.79345703125,-127,2409,5217,18750,-142,24218,102.996826171875,-0.780029296875,133.033447265625,355,3.55,0
359,104879,0.986,289414,986,2,-158,1870,806,-0.0771484375,0.9130859375,0.3935546875,14,-2,13,0.8544921875,-0.1220703125,0.79345703125,986,2677,-3566,12259,735,406,67.3406982421875,4.0374755859375,2.230224609375,355,3.55,0
360,104880,0.991,289419,991,0,-29,2024,-378,-0.01416015625,0.98828125,-0.1845703125,-26,-36,-4,-1.5869140625,-2.197265625,-0.244140625,-4206,2607,-1188,18306,270,-31142,100.557861328125,1.483154296875,-171.068115234375,348,3.48,0
361,104881,0.992,289420,992,1,74,1999,-446,0.0361328125,0.97607421875,-0.2177734375,-41,29,17,-2.50244140625,1.77001953125,1.03759765625,-124,2411,5158,18745,-145,24222,102.9693603515625,-0.7965087890625,133.055419921875,355,3.55,0
362,104882,0.993,289421,993,2,-162,1870,808,-0.0791015625,0.9130859375,0.39453125,16,-5,12,0.9765625,-0.30517578125,0.732421875,985,2702,-3566,12259,735,412,67.3406982421875,4.0374755859375,2.26318359375,355,3.55,0
363,104883,1.001,289429,1001,1,72,1999,-445,0.03515625,0.97607421875,-0.21728515625,-47,27,16,-2.86865234375,1.64794921875,0.9765625,-158,2408,5130,18742,-146,24223,102.952880859375,-0.802001953125,133.0609130859375,355,3.55,0
364,104884,1.016,289444,1016,2,-170,1875,808,-0.0830078125,0.91552734375,0.39453125,25,-10,7,1.52587890625,-0.6103515625,0.42724609375,951,2714,-3573,12258,735,412,67.335205078125,4.0374755859375,2.26318359375,356,3.56,0
365,104885,1.016,289444,1016,2,-166,1891,800,-0.0810546875,0.92333984375,0.390625,-1,-21,11,-0.06103515625,-1.28173828125,0.67138671875,960,2690,-3512,12258,735,418,67.335205078125,4.0374755859375,2.296142578125,356,3.56,0
366,104886,1.019,289447,1019,0,-6,2001,-354,-0.0029296875,0.97705078125,-0.1728515625,-42,-22,-15,-2.5634765625,-1.3427734375,-0.91552734375,-4224,2586,-1180,18292,279,-31148,100.48095703125,1.5325927734375,-171.10107421875,349,3.49,0
367,104887,1.02,289448,1020,1,49,1985,-467,0.02392578125,0.96923828125,-0.22802734375,-41,3,11,-2.50244140625,0.18310546875,0.67138671875,-123,2396,5179,18730,-149,24227,102.886962890625,-0.8184814453125,133.0828857421875,355,3.55,0
368,104888,1.021,289449,1021,2,-160,1892,799,-0.078125,0.923828125,0.39013671875,-5,-22,13,-0.30517578125,-1.3427734375,0.79345703125,954,2702,-3533,12257,736,418,67.3297119140625,4.04296875,2.296142578125,356,3.56,0
369,104889,1.027,289455,1027,1,47,1982,-483,0.02294921875,0.9677734375,-0.23583984375,-43,9,10,-2.62451171875,0.54931640625,0.6103515625,-118,2401,5179,18725,-151,24228,102.8594970703125,-0.8294677734375,133.08837890625,355,3.55,0
370,104890,1.028,289456,1028,2,-154,1892,800,-0.0751953125,0.923828125,0.390625,-8,-23,16,-0.48828125,-1.40380859375,0.9765625,942,2727,-3526,12257,736,418,67.3297119140625,4.04296875,2.296142578125,356,3.56,0
371,104891,1.033,289461,1033,0,-1,2007,-362,-0.00048828125,0.97998046875,-0.1767578125,-37,33,-12,-2.25830078125,2.01416015625,-0.732421875,-4218,2603,-1217,18287,281,-31142,100.4534912109375,1.5435791015625,-171.068115234375,349,3.49,0
372,104892,1.034,289462,1034,1,43,1985,-496,0.02099609375,0.96923828125,-0.2421875,-46,13,10,-2.8076171875,0.79345703125,0.6103515625,-114,2389,5160,18722,-151,24229,102.843017578125,-0.8294677734375,133.0938720703125,355,3.55,0
373,104893,1.035,289463,1035,2,-145,1890,805,-0.07080078125,0.9228515625,0.39306640625,-6,-19,20,-0.3662109375,-1.15966796875,1.220703125,930,2721,-3534,12257,735,423,67.3297119140625,4.0374755859375,2.3236083984375,356,3.56,0
374,104894,1.042,289470,1042,2,-143,1888,806,-0.06982421875,0.921875,0.3935546875,5,-16,18,0.30517578125,-0.9765625,1.0986328125,927,2702,-3535,12256,736,423,67.32421875,4.04296875,2.3236083984375,356,3.56,0
375,104895,1.047,289475,1047,0,-4,2008,-366,-0.001953125,0.98046875,-0.1787109375,-32,35,-8,-1.953125,2.13623046875,-0.48828125,-4208,2611,-1195,18285,281,-31139,100.4425048828125,1.5435791015625,-171.0516357421875,349,3.49,0
376,104896,1.048,289476,1048,1,33,1961,-506,0.01611328125,0.95751953125,-0.2470703125,-30,26,15,-1.8310546875,1.5869140625,0.91552734375,-118,2361,5198,18716,-154,24234,102.81005859375,-0.845947265625,133.121337890625,355,3.55,0
377,104897,1.049,289477,1049,2,-139,1890,802,-0.06787109375,0.9228515625,0.3916015625,14,-15,15,0.8544921875,-0.91552734375,0.91552734375,959,2660,-3541,12256,735,429,67.32421875,4.0374755859375,2.3565673828125,356,3.56,0
378,104898,1.055,289483,1055,1,27,1959,-507,0.01318359375,0.95654296875,-0.24755859375,-28,25,17,-1.708984375,1.52587890625,1.03759765625,-115,2381,5208,18714,-155,24235,102.799072265625,-0.8514404296875,133.1268310546875,355,3.55,0
379,104899,1.056,289484,1056,2,-137,1892,799,-0.06689453125,0.923828125,0.39013671875,8,-14,12,0.48828125,-0.8544921875,0.732421875,944,2644,-3562,12256,735,429,67.32421875,4.0374755859375,2.3565673828125,356,3.56,0
380,104900,1.066,289494,1066,0,-8,2026,-348,-0.00390625,0.9892578125,-0.169921875,-48,7,1,-2.9296875,0.42724609375,0.06103515625,-4228,2604,-1215,18278,281,-31132,100.404052734375,1.5435791015625,-171.01318359375,349,3.49,0
381,104901,1.066,289494,1066,1,33,1973,-502,0.01611328125,0.96337890625,-0.2451171875,-26,44,16,-1.5869140625,2.685546875,0.9765625,-96,2374,5205,18711,-158,24240,102.7825927734375,-0.867919921875,133.154296875,355,3.55,0
382,104902,1.066,289494,1066,2,-135,1893,798,-0.06591796875,0.92431640625,0.3896484375,3,-14,11,0.18310546875,-0.8544921875,0.67138671875,945,2668,-3553,12255,736,429,67.3187255859375,4.04296875,2.3565673828125,356,3.56,0
383,104903,1.069,289497,1069,1,32,1980,-494,0.015625,0.966796875,-0.2412109375,-27,46,17,-1.64794921875,2.8076171875,1.03759765625,-90,2381,5165,18709,-160,24243,102.7716064453125,-0.87890625,133.1707763671875,355,3.55,0
384,104904,1.076,289504,1076,2,-137,1891,799,-0.06689453125,0.92333984375,0.39013671875,8,-21,9,0.48828125,-1.28173828125,0.54931640625,926,2665,-3560,12255,735,434,67.3187255859375,4.0374755859375,2.384033203125,356,3.56,0
385,104905,1.076,289504,1076,0,-21,1998,-354,-0.01025390625,0.9755859375,-0.1728515625,-63,-2,-3,-3.84521484375,-0.1220703125,-0.18310546875,-4235,2599,-1175,18268,282,-31130,100.34912109375,1.549072265625,-171.002197265625,349,3.49,0
386,104906,1.076,289504,1076,1,23,1990,-491,0.01123046875,0.9716796875,-0.23974609375,-19,43,19,-1.15966796875,2.62451171875,1.15966796875,-91,2381,5148,18708,-161,24245,102.76611328125,-0.8843994140625,133.1817626953125,355,3.55,0
387,104907,1.077,289505,1077,2,-136,1889,800,-0.06640625,0.92236328125,0.390625,8,-25,10,0.48828125,-1.52587890625,0.6103515625,934,2673,-3551,12255,735,434,67.3187255859375,4.0374755859375,2.384033203125,356,3.56,0
388,104908,1.083,289511,1083,1,16,2054,-493,0.0078125,1.0029296875,-0.24072265625,-24,35,17,-1.46484375,2.13623046875,1.03759765625,-109,2368,5156,18705,-164,24249,102.7496337890625,-0.90087890625,133.2037353515625,355,3.55,0
389,104909,1.084,289512,1084,2,-134,1888,801,-0.0654296875,0.921875,0.39111328125,-1,-26,10,-0.06103515625,-1.5869140625,0.6103515625,939,2671,-3538,12254,735,434,67.313232421875,4.0374755859375,2.384033203125,356,3.56,0
390,104910,1.09,289518,1090,1,11,2074,-486,0.00537109375,1.0126953125,-0.2373046875,-34,28,12,-2.0751953125,1.708984375,0.732421875,-99,2375,5139,18702,-165,24251,102.733154296875,-0.9063720703125,133.2147216796875,355,3.55,0
391,104911,1.091,289519,1091,2,-134,1879,809,-0.0654296875,0.91748046875,0.39501953125,-8,-34,13,-0.48828125,-2.0751953125,0.79345703125,945,2682,-3524,12254,735,439,67.313232421875,4.0374755859375,2.4114990234375,357,3.57,0
392,104912,1.096,289524,1096,0,-34,1968,-366,-0.0166015625,0.9609375,-0.1787109375,-25,-34,7,-1.52587890625,-2.0751953125,0.42724609375,-4326,2644,-1137,18261,284,-31132,100.3106689453125,1.56005859375,-171.01318359375,349,3.49,0
393,104913,1.097,289525,1097,1,4,2071,-458,0.001953125,1.01123046875,-0.2236328125,-57,17,21,-3.47900390625,1.03759765625,1.28173828125,-93,2394,5155,18695,-168,24253,102.6947021484375,-0.9228515625,133.2257080078125,355,3.55,0
394,104914,1.098,289526,1098,2,-137,1873,814,-0.06689453125,0.91455078125,0.3974609375,-2,-38,16,-0.1220703125,-2.3193359375,0.9765625,964,2680,-3519,12254,735,439,67.313232421875,4.0374755859375,2.4114990234375,357,3.57,0
395,104915,1.104,289532,1104,1,3,2056,-453,0.00146484375,1.00390625,-0.22119140625,-81,21,28,-4.94384765625,1.28173828125,1.708984375,-100,2389,5193,18690,-170,24254,102.667236328125,-0.933837890625,133.231201171875,355,3.55,0
396,104916,1.105,289533,1105,2,-153,1865,823,-0.07470703125,0.91064453125,0.40185546875,17,-50,23,1.03759765625,-3.0517578125,1.40380859375,960,2698,-3571,12252,735,439,67.30224609375,4.0374755859375,2.4114990234375,357,3.57,0
397,104917,1.11,289538,1110,0,-67,2009,-378,-0.03271484375,0.98095703125,-0.1845703125,2,-70,39,0.1220703125,-4.2724609375,2.38037109375,-4338,2650,-1145,18261,282,-31141,100.3106689453125,1.549072265625,-171.0626220703125,350,3.5,0
398,104918,1.111,289539,1111,1,9,2026,-431,0.00439453125,0.9892578125,-0.21044921875,-85,36,30,-5.18798828125,2.197265625,1.8310546875,-109,2413,5173,18685,-172,24257,102.6397705078125,-0.94482421875,133.2476806640625,355,3.55,0
399,104919,1.112,289540,1112,2,-160,1865,825,-0.078125,0.91064453125,0.40283203125,28,-59,27,1.708984375,-3.60107421875,1.64794921875,986,2710,-3576,12253,734,438,67.3077392578125,4.031982421875,2.406005859375,357,3.57,0
400,104920,1.117,289545,1117,0,-74,2027,-376,-0.0361328125,0.98974609375,-0.18359375,4,-91,48,0.244140625,-5.55419921875,2.9296875,-4335,2625,-1143,18262,280,-31146,100.316162109375,1.5380859375,-171.090087890625,350,3.5,0
401,104921,1.118,289546,1118,1,-11,1995,-437,-0.00537109375,0.97412109375,-0.21337890625,-96,32,40,-5.859375,1.953125,2.44140625,-175,2380,5110,18675,-177,24260,102.5848388671875,-0.9722900390625,133.26416015625,355,3.55,0
402,104922,1.119,289547,1119,2,-163,1867,826,-0.07958984375,0.91162109375,0.4033203125,32,-64,31,1.953125,-3.90625,1.89208984375,969,2709,-3554,12255,731,435,67.3187255859375,4.0155029296875,2.3895263671875,357,3.57,0
403,104923,1.125,289553,1125,1,-13,1977,-430,-0.00634765625,0.96533203125,-0.2099609375,-86,20,40,-5.2490234375,1.220703125,2.44140625,-160,2374,5136,18670,-179,24261,102.557373046875,-0.9832763671875,133.2696533203125,355,3.55,0
404,104924,1.126,289554,1126,2,-155,1875,820,-0.07568359375,0.91552734375,0.400390625,30,-80,41,1.8310546875,-4.8828125,2.50244140625,947,2712,-3511,12259,725,428,67.3406982421875,3.9825439453125,2.35107421875,357,3.57,0
405,104925,1.132,289560,1132,1,-10,1973,-445,-0.0048828125,0.96337890625,-0.21728515625,-81,-4,35,-4.94384765625,-0.244140625,2.13623046875,-167,2348,5108,18660,-183,24260,102.50244140625,-1.0052490234375,133.26416015625,355,3.55,0
406,104926,1.139,289567,1139,2,-143,1879,817,-0.06982421875,0.91748046875,0.39892578125,24,-86,43,1.46484375,-5.2490234375,2.62451171875,965,2716,-3478,12260,722,424,67.34619140625,3.966064453125,2.3291015625,357,3.57,0
407,104927,1.139,289567,1139,1,-8,1973,-453,-0.00390625,0.96337890625,-0.22119140625,-94,-14,31,-5.7373046875,-0.8544921875,1.89208984375,-178,2346,5124,18655,-184,24259,102.4749755859375,-1.0107421875,133.2586669921875,355,3.55,0
408,104928,1.14,289568,1140,2,-119,1884,816,-0.05810546875,0.919921875,0.3984375,17,-88,42,1.03759765625,-5.37109375,2.5634765625,978,2720,-3466,12262,715,417,67.357177734375,3.9276123046875,2.2906494140625,357,3.57,0
409,104929,1.145,289573,1145,0,-58,2050,-331,-0.0283203125,1.0009765625,-0.16162109375,-114,-142,34,-6.9580078125,-8.6669921875,2.0751953125,-4336,2597,-1138,18241,275,-31187,100.2008056640625,1.5106201171875,-171.3153076171875,350,3.5,0
410,104930,1.146,289574,1146,1,-9,1971,-466,-0.00439453125,0.96240234375,-0.2275390625,-97,-32,32,-5.92041015625,-1.953125,1.953125,-192,2359,5117,18649,-186,24257,102.4420166015625,-1.021728515625,133.2476806640625,355,3.55,0
411,104931,1.147,289575,1147,2,-107,1883,818,-0.05224609375,0.91943359375,0.3994140625,20,-94,40,1.220703125,-5.7373046875,2.44140625,995,2705,-3449,12263,712,412,67.3626708984375,3.9111328125,2.26318359375,357,3.57,0
412,104932,1.153,289581,1153,1,5,1956,-465,0.00244140625,0.955078125,-0.22705078125,-91,-48,44,-5.55419921875,-2.9296875,2.685546875,-215,2381,5106,18638,-190,24252,102.381591796875,-1.043701171875,133.22021484375,355,3.55,0
413,104933,1.154,289582,1154,2,-98,1882,820,-0.0478515625,0.9189453125,0.400390625,30,-91,33,1.8310546875,-5.55419921875,2.01416015625,989,2695,-3479,12265,709,408,67.3736572265625,3.8946533203125,2.2412109375,357,3.57,0
414,104934,1.16,289588,1160,1,17,1956,-466,0.00830078125,0.955078125,-0.2275390625,-94,-33,50,-5.7373046875,-2.01416015625,3.0517578125,-213,2384,5113,18633,-192,24250,102.3541259765625,-1.0546875,133.209228515625,355,3.55,0
415,104935,1.167,289595,1167,1,16,1962,-481,0.0078125,0.9580078125,-0.23486328125,-94,-15,56,-5.7373046875,-0.91552734375,3.41796875,-195,2355,5147,18622,-197,24248,102.293701171875,-1.0821533203125,133.1982421875,355,3.55,0
416,104936,1.168,289596,1168,2,-86,1878,815,-0.0419921875,0.9169921875,0.39794921875,46,-86,23,2.8076171875,-5.2490234375,1.40380859375,980,2705,-3450,12272,701,396,67.412109375,3.8507080078125,2.17529296875,357,3.57,0
417,104937,1.174,289602,1174,1,7,1953,-481,0.00341796875,0.95361328125,-0.23486328125,-73,-19,50,-4.45556640625,-1.15966796875,3.0517578125,-202,2364,5153,18618,-200,24247,102.271728515625,-1.0986328125,133.1927490234375,355,3.55,0
418,104938,1.175,289603,1175,2,-80,1880,804,-0.0390625,0.91796875,0.392578125,35,-77,15,2.13623046875,-4.69970703125,0.91552734375,997,2675,-3450,12276,697,388,67.43408203125,3.8287353515625,2.13134765625,357,3.57,0
419,104939,1.181,289609,1181,1,-7,1943,-481,-0.00341796875,0.94873046875,-0.23486328125,-53,-26,56,-3.23486328125,-1.5869140625,3.41796875,-179,2377,5170,18615,-203,24245,102.2552490234375,-1.1151123046875,133.1817626953125,355,3.55,0
420,104940,1.182,289610,1182,2,-77,1881,799,-0.03759765625,0.91845703125,0.39013671875,28,-69,8,1.708984375,-4.21142578125,0.48828125,1002,2655,-3430,12277,696,385,67.4395751953125,3.8232421875,2.1148681640625,357,3.57,0
421,104941,1.187,289615,1187,0,-114,2046,-392,-0.0556640625,0.9990234375,-0.19140625,-142,-28,-5,-8.6669921875,-1.708984375,-0.30517578125,-4320,2659,-1191,18181,276,-31213,99.8712158203125,1.51611328125,-171.4581298828125,349,3.49,0
422,104942,1.188,289616,1188,1,-12,1950,-475,-0.005859375,0.9521484375,-0.23193359375,-76,-49,67,-4.638671875,-2.99072265625,4.08935546875,-174,2396,5176,18606,-209,24239,102.205810546875,-1.1480712890625,133.1488037109375,355,3.55,0
423,104943,1.189,289617,1189,2,-75,1882,798,-0.03662109375,0.9189453125,0.3896484375,24,-61,3,1.46484375,-3.72314453125,0.18310546875,989,2637,-3441,12279,695,382,67.4505615234375,3.8177490234375,2.098388671875,357,3.57,0
424,104944,1.195,289623,1195,1,-3,1949,-461,-0.00146484375,0.95166015625,-0.22509765625,-93,-52,60,-5.67626953125,-3.173828125,3.662109375,-182,2398,5125,18601,-211,24235,102.1783447265625,-1.1590576171875,133.1268310546875,355,3.55,0
425,104945,1.196,289624,1196,2,-66,1891,803,-0.0322265625,0.92333984375,0.39208984375,35,-50,-14,2.13623046875,-3.0517578125,-0.8544921875,992,2625,-3402,12283,696,376,67.4725341796875,3.8232421875,2.0654296875,357,3.57,0
426,104946,1.203,289631,1203,0,-122,2037,-409,-0.0595703125,0.99462890625,-0.19970703125,-114,-14,-31,-6.9580078125,-0.8544921875,-1.89208984375,-4263,2623,-1246,18161,282,-31213,99.7613525390625,1.549072265625,-171.4581298828125,348,3.48,0
427,104947,1.203,289631,1203,1,-16,1931,-449,-0.0078125,0.94287109375,-0.21923828125,-78,-66,57,-4.7607421875,-4.0283203125,3.47900390625,-156,2380,5108,18597,-213,24232,102.1563720703125,-1.1700439453125,133.1103515625,355,3.55,0
428,104948,1.204,289632,1204,2,-62,1896,799,-0.0302734375,0.92578125,0.39013671875,43,-45,-19,2.62451171875,-2.74658203125,-1.15966796875,984,2635,-3415,12285,697,373,67.4835205078125,3.8287353515625,2.0489501953125,357,3.57,0
429,104949,1.209,289637,1209,1,-2,1948,-444,-0.0009765625,0.951171875,-0.216796875,-66,-87,55,-4.0283203125,-5.31005859375,3.35693359375,-172,2371,5152,18590,-217,24222,102.117919921875,-1.1920166015625,133.055419921875,355,3.55,0
430,104950,1.21,289638,1210,2,-56,1904,782,-0.02734375,0.9296875,0.3818359375,21,-37,-33,1.28173828125,-2.25830078125,-2.01416015625,964,2661,-3458,12288,699,367,67.5,3.8397216796875,2.0159912109375,358,3.58,0
431,104951,1.215,289643,1215,0,-99,2025,-395,-0.04833984375,0.98876953125,-0.19287109375,-102,-27,-47,-6.2255859375,-1.64794921875,-2.86865234375,-4245,2589,-1189,18146,291,-31213,99.678955078125,1.5985107421875,-171.4581298828125,348,3.48,0
432,104952,1.216,289644,1216,1,8,1963,-429,0.00390625,0.95849609375,-0.20947265625,-72,-85,43,-4.39453125,-5.18798828125,2.62451171875,-184,2371,5182,18585,-218,24217,102.0904541015625,-1.197509765625,133.0279541015625,355,3.55,0
433,104953,1.217,289645,1217,2,-56,1905,776,-0.02734375,0.93017578125,0.37890625,7,-34,-37,0.42724609375,-2.0751953125,-2.25830078125,965,2677,-3499,12288,701,365,67.5,3.8507080078125,2.0050048828125,358,3.58,0
434,104954,1.222,289650,1222,0,-84,2016,-377,-0.041015625,0.984375,-0.18408203125,-103,-28,-48,-6.28662109375,-1.708984375,-2.9296875,-4257,2555,-1195,18140,294,-31213,99.64599609375,1.614990234375,-171.4581298828125,348,3.48,0
435,104955,1.223,289651,1223,1,27,1986,-434,0.01318359375,0.9697265625,-0.2119140625,-54,-82,24,-3.2958984375,-5.0048828125,1.46484375,-176,2390,5249,18579,-219,24209,102.0574951171875,-1.2030029296875,132.9840087890625,355,3.55,0
436,104956,1.224,289652,1224,2,-57,1902,775,-0.02783203125,0.9287109375,0.37841796875,-2,-30,-41,-0.1220703125,-1.8310546875,-2.50244140625,947,2653,-3488,12288,703,362,67.5,3.8616943359375,1.988525390625,358,3.58,0
437,104957,1.229,289657,1229,0,-64,2013,-344,-0.03125,0.98291015625,-0.16796875,-106,-24,-43,-6.4697265625,-1.46484375,-2.62451171875,-4237,2561,-1199,18129,299,-31213,99.5855712890625,1.6424560546875,-171.4581298828125,348,3.48,0
438,104958,1.23,289658,1230,1,31,1999,-441,0.01513671875,0.97607421875,-0.21533203125,-47,-90,21,-2.86865234375,-5.4931640625,1.28173828125,-170,2382,5265,18576,-220,24204,102.041015625,-1.20849609375,132.95654296875,355,3.55,0
439,104959,1.231,289659,1231,2,-63,1892,784,-0.03076171875,0.923828125,0.3828125,13,-21,-44,0.79345703125,-1.28173828125,-2.685546875,955,2656,-3479,12289,708,358,67.5054931640625,3.88916015625,1.966552734375,358,3.58,0
440,104960,1.237,289665,1237,1,35,2007,-450,0.01708984375,0.97998046875,-0.2197265625,-48,-97,29,-2.9296875,-5.92041015625,1.77001953125,-159,2391,5217,18573,-220,24199,102.0245361328125,-1.20849609375,132.9290771484375,354,3.54,0
441,104961,1.238,289666,1238,2,-68,1890,786,-0.033203125,0.9228515625,0.3837890625,21,-19,-43,1.28173828125,-1.15966796875,-2.62451171875,945,2647,-3518,12291,711,356,67.5164794921875,3.9056396484375,1.95556640625,358,3.58,0
442,104962,1.244,289672,1244,1,43,2010,-443,0.02099609375,0.9814453125,-0.21630859375,-67,-86,40,-4.08935546875,-5.2490234375,2.44140625,-127,2380,5217,18566,-223,24189,101.986083984375,-1.2249755859375,132.8741455078125,354,3.54,0
443,104963,1.245,289673,1245,2,-75,1890,785,-0.03662109375,0.9228515625,0.38330078125,21,-15,-42,1.28173828125,-0.91552734375,-2.5634765625,952,2643,-3520,12292,713,355,67.52197265625,3.9166259765625,1.9500732421875,359,3.59,0
444,104964,1.25,289678,1250,0,-39,2034,-298,-0.01904296875,0.9931640625,-0.1455078125,-122,0,-14,-7.4462890625,0.0,-0.8544921875,-4248,2612,-1175,18104,306,-31211,99.4482421875,1.680908203125,-171.4471435546875,347,3.47,0
445,104965,1.251,289679,1251,1,30,2004,-443,0.0146484375,0.978515625,-0.21630859375,-68,-87,50,-4.150390625,-5.31005859375,3.0517578125,-118,2376,5221,18562,-224,24184,101.964111328125,-1.23046875,132.8466796875,354,3.54,0
446,104966,1.252,289680,1252,2,-87,1892,783,-0.04248046875,0.923828125,0.38232421875,3,-10,-37,0.18310546875,-0.6103515625,-2.25830078125,974,2594,-3531,12293,718,352,67.5274658203125,3.944091796875,1.93359375,359,3.59,0
447,104967,1.258,289686,1258,1,32,1971,-416,0.015625,0.96240234375,-0.203125,-21,-75,56,-1.28173828125,-4.57763671875,3.41796875,-71,2393,5234,18558,-228,24176,101.942138671875,-1.25244140625,132.802734375,354,3.54,0
448,104968,1.271,289699,1271,2,-94,1895,785,-0.0458984375,0.92529296875,0.38330078125,3,-8,-33,0.18310546875,-0.48828125,-2.01416015625,983,2567,-3535,12293,720,350,67.5274658203125,3.955078125,1.922607421875,359,3.59,0
449,104969,1.271,289699,1271,0,-44,2034,-302,-0.021484375,0.9931640625,-0.1474609375,-145,12,-10,-8.85009765625,0.732421875,-0.6103515625,-4244,2572,-1126,18075,308,-31205,99.2889404296875,1.69189453125,-171.4141845703125,347,3.47,0
450,104970,1.272,289700,1272,1,16,1976,-428,0.0078125,0.96484375,-0.208984375,-41,-99,75,-2.50244140625,-6.04248046875,4.57763671875,-55,2346,5250,18553,-234,24165,101.9146728515625,-1.285400390625,132.7423095703125,354,3.54,0
451,104971,1.273,289701,1273,2,-102,1893,799,-0.0498046875,0.92431640625,0.39013671875,22,9,-21,1.3427734375,0.54931640625,-1.28173828125,960,2558,-3558,12296,725,349,67.5439453125,3.9825439453125,1.9171142578125,359,3.59,0
452,104972,1.278,289706,1278,0,-49,2033,-308,-0.02392578125,0.99267578125,-0.150390625,-147,8,-11,-8.97216796875,0.48828125,-0.67138671875,-4251,2584,-1140,18067,309,-31203,99.2449951171875,1.6973876953125,-171.4031982421875,347,3.47,0
453,104973,1.279,289707,1279,1,25,1963,-405,0.01220703125,0.95849609375,-0.19775390625,-57,-101,64,-3.47900390625,-6.16455078125,3.90625,-61,2304,5198,18546,-238,24153,101.876220703125,-1.307373046875,132.6763916015625,354,3.54,0
454,104974,1.28,289708,1280,2,-102,1894,802,-0.0498046875,0.9248046875,0.3916015625,30,15,-19,1.8310546875,0.91552734375,-1.15966796875,951,2576,-3559,12299,727,350,67.5604248046875,3.9935302734375,1.922607421875,359,3.59,0
455,104975,1.285,289713,1285,0,-60,2032,-314,-0.029296875,0.9921875,-0.1533203125,-143,-16,-15,-8.72802734375,-0.9765625,-0.91552734375,-4237,2603,-1197,18051,312,-31203,99.1571044921875,1.7138671875,-171.4031982421875,347,3.47,0
456,104976,1.286,289714,1286,1,23,1962,-413,0.01123046875,0.9580078125,-0.20166015625,-46,-103,56,-2.8076171875,-6.28662109375,3.41796875,-49,2296,5230,18544,-240,24147,101.865234375,-1.318359375,132.6434326171875,354,3.54,0
457,104977,1.287,289715,1287,2,-103,1898,797,-0.05029296875,0.9267578125,0.38916015625,38,17,-20,2.3193359375,1.03759765625,-1.220703125,967,2590,-3531,12303,731,350,67.5823974609375,4.0155029296875,1.922607421875,359,3.59,0
458,104978,1.292,289720,1292,0,-63,2041,-320,-0.03076171875,0.99658203125,-0.15625,-147,-31,-15,-8.97216796875,-1.89208984375,-0.91552734375,-4221,2590,-1197,18044,313,-31204,99.11865234375,1.7193603515625,-171.40869140625,348,3.48,0
459,104979,1.293,289721,1293,1,19,1988,-405,0.00927734375,0.970703125,-0.19775390625,-52,-108,48,-3.173828125,-6.591796875,2.9296875,-50,2318,5232,18538,-243,24135,101.832275390625,-1.3348388671875,132.5775146484375,354,3.54,0
460,104980,1.294,289722,1294,2,-106,1899,789,-0.0517578125,0.92724609375,0.38525390625,34,17,-21,2.0751953125,1.03759765625,-1.28173828125,956,2589,-3529,12305,733,350,67.5933837890625,4.0264892578125,1.922607421875,359,3.59,0
461,104981,1.3,289728,1300,1,26,1991,-400,0.0126953125,0.97216796875,-0.1953125,-51,-98,44,-3.11279296875,-5.9814453125,2.685546875,-51,2326,5211,18535,-245,24130,101.8157958984375,-1.3458251953125,132.550048828125,354,3.54,0
462,104982,1.301,289729,1301,2,-107,1894,778,-0.05224609375,0.9248046875,0.3798828125,24,15,-22,1.46484375,0.91552734375,-1.3427734375,924,2630,-3556,12308,737,351,67.60986328125,4.0484619140625,1.9281005859375,359,3.59,0
463,104983,1.307,289735,1307,1,36,1988,-401,0.017578125,0.970703125,-0.19580078125,-51,-88,44,-3.11279296875,-5.37109375,2.685546875,-77,2311,5192,18532,-246,24126,101.79931640625,-1.351318359375,132.528076171875,354,3.54,0
464,104984,1.308,289736,1308,2,-102,1889,777,-0.0498046875,0.92236328125,0.37939453125,26,21,-24,1.5869140625,1.28173828125,-1.46484375,910,2625,-3581,12310,739,351,67.620849609375,4.0594482421875,1.9281005859375,359,3.59,0
465,104985,1.314,289742,1314,1,53,1977,-404,0.02587890625,0.96533203125,-0.197265625,-46,-72,46,-2.8076171875,-4.39453125,2.8076171875,-83,2268,5218,18526,-249,24117,101.766357421875,-1.3677978515625,132.4786376953125,354,3.54,0
466,104986,1.315,289743,1315,2,-95,1882,779,-0.04638671875,0.9189453125,0.38037109375,35,26,-24,2.13623046875,1.5869140625,-1.46484375,906,2668,-3603,12310,739,357,67.620849609375,4.0594482421875,1.9610595703125,359,3.59,0
467,104987,1.32,289748,1320,0,-76,2057,-332,-0.037109375,1.00439453125,-0.162109375,-178,-62,-37,-10.8642578125,-3.7841796875,-2.25830078125,-4193,2584,-1155,17989,327,-31218,98.8165283203125,1.7962646484375,-171.485595703125,348,3.48,0
468,104988,1.321,289749,1321,1,71,1980,-407,0.03466796875,0.966796875,-0.19873046875,-45,-51,40,-2.74658203125,-3.11279296875,2.44140625,-75,2281,5195,18524,-251,24115,101.75537109375,-1.3787841796875,132.4676513671875,355,3.55,0
469,104989,1.328,289756,1328,2,-76,1873,782,-0.037109375,0.91455078125,0.3818359375,59,40,-28,3.60107421875,2.44140625,-1.708984375,906,2669,-3617,12314,742,358,67.642822265625,4.075927734375,1.966552734375,359,3.59,0
470,104990,1.328,289756,1328,0,-80,2055,-334,-0.0390625,1.00341796875,-0.1630859375,-176,-54,-43,-10.7421875,-3.2958984375,-2.62451171875,-4186,2596,-1162,17980,330,-31220,98.76708984375,1.812744140625,-171.49658203125,348,3.48,0
471,104991,1.328,289756,1328,1,72,1987,-425,0.03515625,0.97021484375,-0.20751953125,-56,-48,36,-3.41796875,-2.9296875,2.197265625,-88,2287,5209,18518,-254,24109,101.722412109375,-1.395263671875,132.4346923828125,355,3.55,0
472,104992,1.329,289757,1329,2,-69,1875,782,-0.03369140625,0.91552734375,0.3818359375,60,45,-34,3.662109375,2.74658203125,-2.0751953125,927,2676,-3603,12317,745,360,67.6593017578125,4.0924072265625,1.9775390625,359,3.59,0
473,104993,1.335,289763,1335,1,61,1973,-439,0.02978515625,0.96337890625,-0.21435546875,-43,-63,41,-2.62451171875,-3.84521484375,2.50244140625,-89,2283,5235,18515,-256,24105,101.7059326171875,-1.40625,132.4127197265625,355,3.55,0
474,104994,1.336,289764,1336,2,-67,1884,778,-0.03271484375,0.919921875,0.3798828125,53,62,-39,3.23486328125,3.7841796875,-2.38037109375,927,2701,-3624,12324,753,365,67.69775390625,4.1363525390625,2.0050048828125,359,3.59,0
475,104995,1.341,289769,1341,0,-93,2042,-325,-0.04541015625,0.9970703125,-0.15869140625,-185,-42,-56,-11.29150390625,-2.5634765625,-3.41796875,-4214,2607,-1157,17951,341,-31223,98.6077880859375,1.8731689453125,-171.5130615234375,348,3.48,0
476,104996,1.342,289770,1342,1,70,1976,-440,0.0341796875,0.96484375,-0.21484375,-31,-64,38,-1.89208984375,-3.90625,2.3193359375,-119,2292,5205,18513,-257,24102,101.6949462890625,-1.4117431640625,132.396240234375,355,3.55,0
477,104997,1.343,289771,1343,2,-72,1889,777,-0.03515625,0.92236328125,0.37939453125,45,63,-39,2.74658203125,3.84521484375,-2.38037109375,936,2684,-3595,12327,756,367,67.7142333984375,4.15283203125,2.0159912109375,359,3.59,0
478,104998,1.349,289777,1349,1,67,1983,-453,0.03271484375,0.96826171875,-0.22119140625,-25,-71,38,-1.52587890625,-4.33349609375,2.3193359375,-107,2299,5245,18510,-261,24093,101.678466796875,-1.4337158203125,132.3468017578125,355,3.55,0
479,104999,1.35,289778,1350,2,-79,1894,776,-0.03857421875,0.9248046875,0.37890625,32,66,-36,1.953125,4.0283203125,-2.197265625,948,2672,-3565,12328,760,370,67.7197265625,4.1748046875,2.032470703125,359,3.59,0
480,105000,1.355,289783,1355,0,-86,2022,-315,-0.0419921875,0.9873046875,-0.15380859375,-196,-30,-75,-11.962890625,-1.8310546875,-4.57763671875,-4192,2596,-1130,17919,355,-31224,98.4320068359375,1.9500732421875,-171.5185546875,348,3.48,0
481,105001,1.357,289785,1357,2,-93,1902,777,-0.04541015625,0.9287109375,0.37939453125,5,61,-34,0.30517578125,3.72314453125,-2.0751953125,953,2662,-3535,12330,767,374,67.730712890625,4.2132568359375,2.054443359375,359,3.59,0
482,105002,1.363,289791,1363,1,92,1991,-437,0.044921875,0.97216796875,-0.21337890625,-21,-55,32,-1.28173828125,-3.35693359375,1.953125,-100,2335,5295,18507,-263,24086,101.6619873046875,-1.4447021484375,132.308349609375,355,3.55,0
483,105003,1.364,289792,1364,2,-97,1903,778,-0.04736328125,0.92919921875,0.3798828125,0,67,-34,0.0,4.08935546875,-2.0751953125,950,2663,-3533,12330,771,377,67.730712890625,4.2352294921875,2.0709228515625,359,3.59,0
484,105004,1.369,289797,1369,0,-75,2015,-302,-0.03662109375,0.98388671875,-0.1474609375,-189,-20,-84,-11.53564453125,-1.220703125,-5.126953125,-4216,2590,-1126,17898,365,-31224,98.316650390625,2.0050048828125,-171.5185546875,348,3.48,0
485,105005,1.37,289798,1370,1,100,2003,-453,0.048828125,0.97802734375,-0.22119140625,-22,-45,31,-1.3427734375,-2.74658203125,1.89208984375,-113,2300,5296,18504,-266,24081,101.6455078125,-1.461181640625,132.2808837890625,355,3.55,0
486,105006,1.371,289799,1371,2,-104,1901,782,-0.05078125,0.92822265625,0.3818359375,-1,76,-33,-0.06103515625,4.638671875,-2.01416015625,946,2664,-3530,12331,775,381,67.7362060546875,4.2572021484375,2.0928955078125,359,3.59,0
487,105007,1.378,289806,1378,2,-121,1895,793,-0.05908203125,0.92529296875,0.38720703125,17,82,-24,1.03759765625,5.0048828125,-1.46484375,940,2665,-3526,12334,782,388,67.752685546875,4.295654296875,2.13134765625,359,3.59,0
488,105008,1.383,289811,1383,0,-68,2029,-284,-0.033203125,0.99072265625,-0.138671875,-183,-19,-90,-11.16943359375,-1.15966796875,-5.4931640625,-4224,2558,-1114,17869,380,-31222,98.1573486328125,2.08740234375,-171.507568359375,349,3.49,0
489,105009,1.385,289813,1385,2,-128,1896,796,-0.0625,0.92578125,0.388671875,23,84,-21,1.40380859375,5.126953125,-1.28173828125,957,2668,-3521,12336,785,392,67.763671875,4.3121337890625,2.1533203125,359,3.59,0
490,105010,1.392,289820,1392,0,-76,2046,-262,-0.037109375,0.9990234375,-0.1279296875,-195,-15,-95,-11.90185546875,-0.91552734375,-5.79833984375,-4216,2545,-1112,17848,392,-31221,98.0419921875,2.1533203125,-171.5020751953125,349,3.49,0
491,105011,1.392,289820,1392,2,-136,1895,794,-0.06640625,0.92529296875,0.3876953125,21,89,-10,1.28173828125,5.43212890625,-0.6103515625,958,2642,-3528,12339,791,400,67.7801513671875,4.3450927734375,2.197265625,359,3.59,0
492,105012,1.398,289826,1398,1,121,2006,-432,0.05908203125,0.9794921875,-0.2109375,-23,29,47,-1.40380859375,1.77001953125,2.86865234375,-94,2358,5313,18498,-278,24082,101.612548828125,-1.527099609375,132.286376953125,355,3.55,0
493,105013,1.399,289827,1399,2,-139,1894,793,-0.06787109375,0.9248046875,0.38720703125,19,94,-8,1.15966796875,5.7373046875,-0.48828125,948,2644,-3517,12340,794,405,67.78564453125,4.361572265625,2.2247314453125,359,3.59,0
494,105014,1.404,289832,1404,0,-68,2057,-248,-0.033203125,1.00439453125,-0.12109375,-214,-15,-107,-13.0615234375,-0.91552734375,-6.53076171875,-4236,2522,-1102,17825,404,-31219,97.9156494140625,2.21923828125,-171.4910888671875,349,3.49,0
495,105015,1.406,289834,1406,2,-144,1891,791,-0.0703125,0.92333984375,0.38623046875,11,91,-5,0.67138671875,5.55419921875,-0.30517578125,951,2654,-3473,12341,797,410,67.7911376953125,4.3780517578125,2.252197265625,359,3.59,0
496,105016,1.411,289839,1411,0,-57,2074,-233,-0.02783203125,1.0126953125,-0.11376953125,-240,1,-109,-14.6484375,0.06103515625,-6.65283203125,-4246,2521,-1115,17799,416,-31216,97.7728271484375,2.28515625,-171.474609375,350,3.5,0
497,105017,1.413,289841,1413,2,-147,1881,792,-0.07177734375,0.91845703125,0.38671875,-5,101,1,-0.30517578125,6.16455078125,0.06103515625,961,2643,-3483,12342,802,420,67.796630859375,4.405517578125,2.30712890625,359,3.59,0
498,105018,1.418,289846,1418,0,-49,2084,-223,-0.02392578125,1.017578125,-0.10888671875,-250,22,-109,-15.2587890625,1.3427734375,-6.65283203125,-4244,2500,-1131,17785,422,-31213,97.6959228515625,2.318115234375,-171.4581298828125,350,3.5,0
499,105019,1.42,289848,1420,2,-146,1876,796,-0.0712890625,0.916015625,0.388671875,-14,115,0,-0.8544921875,7.01904296875,0.0,952,2635,-3515,12342,805,426,67.796630859375,4.4219970703125,2.340087890625,359,3.59,0
500,105020,1.427,289855,1427,2,-148,1883,808,-0.072265625,0.91943359375,0.39453125,-35,127,-10,-2.13623046875,7.75146484375,-0.6103515625,929,2642,-3548,12340,812,438,67.78564453125,4.46044921875,2.406005859375,359,3.59,0
501,105021,1.432,289860,1432,0,-38,2149,-205,-0.0185546875,1.04931640625,-0.10009765625,-283,79,-112,-17.27294921875,4.82177734375,-6.8359375,-4227,2500,-1087,17741,440,-31196,97.4542236328125,2.4169921875,-171.36474609375,350,3.5,0
502,105022,1.433,289861,1433,1,-2,1898,-445,-0.0009765625,0.9267578125,-0.21728515625,47,25,63,2.86865234375,1.52587890625,3.84521484375,-79,2346,5282,18500,-305,24101,101.62353515625,-1.6754150390625,132.3907470703125,355,3.55,0
503,105023,1.434,289862,1434,2,-149,1883,815,-0.07275390625,0.91943359375,0.39794921875,-51,135,-12,-3.11279296875,8.23974609375,-0.732421875,953,2603,-3554,12337,816,445,67.7691650390625,4.482421875,2.4444580078125,359,3.59,0
504,105024,1.439,289867,1439,0,-30,2170,-202,-0.0146484375,1.0595703125,-0.0986328125,-308,79,-118,-18.798828125,4.82177734375,-7.2021484375,-4239,2493,-1053,17724,446,-31190,97.36083984375,2.449951171875,-171.331787109375,350,3.5,0
505,105025,1.441,289869,1441,2,-147,1879,823,-0.07177734375,0.91748046875,0.40185546875,-63,144,-18,-3.84521484375,8.7890625,-1.0986328125,976,2606,-3561,12335,821,452,67.7581787109375,4.5098876953125,2.48291015625,359,3.59,0
506,105026,1.446,289874,1446,0,-25,2190,-183,-0.01220703125,1.0693359375,-0.08935546875,-360,40,-142,-21.97265625,2.44140625,-8.6669921875,-4259,2532,-1025,17685,462,-31182,97.1466064453125,2.537841796875,-171.287841796875,350,3.5,0
507,105027,1.448,289876,1448,2,-138,1866,850,-0.0673828125,0.9111328125,0.4150390625,-48,174,-33,-2.9296875,10.6201171875,-2.01416015625,991,2643,-3527,12331,833,469,67.7362060546875,4.5758056640625,2.5762939453125,359,3.59,0
508,105028,1.456,289884,1456,0,-19,2193,-170,-0.00927734375,1.07080078125,-0.0830078125,-384,-1,-152,-23.4375,-0.06103515625,-9.27734375,-4274,2545,-1055,17664,471,-31181,97.03125,2.5872802734375,-171.2823486328125,351,3.51,0
509,105029,1.456,289884,1456,2,-139,1858,864,-0.06787109375,0.9072265625,0.421875,-34,187,-46,-2.0751953125,11.41357421875,-2.8076171875,995,2624,-3529,12330,840,478,67.730712890625,4.6142578125,2.625732421875,358,3.58,0
510,105030,1.46,289888,1460,0,-19,2193,-170,-0.00927734375,1.07080078125,-0.0830078125,-384,-1,-152,-23.4375,-0.06103515625,-9.27734375,-4274,2545,-1055,17664,471,-31181,97.03125,2.5872802734375,-171.2823486328125,351,3.51,0
511,105031,1.462,289890,1462,2,-151,1843,885,-0.07373046875,0.89990234375,0.43212890625,-31,205,-54,-1.89208984375,12.51220703125,-3.2958984375,1016,2633,-3555,12329,855,496,67.7252197265625,4.6966552734375,2.724609375,358,3.58,0
512,105032,1.471,289899,1471,0,-16,2224,-111,-0.0078125,1.0859375,-0.05419921875,-434,-148,-186,-26.4892578125,-9.033203125,-11.3525390625,-4271,2511,-1049,17593,504,-31194,96.6412353515625,2.7685546875,-171.353759765625,351,3.51,0
513,105033,1.474,289902,1474,0,-9,2244,-69,-0.00439453125,1.095703125,-0.03369140625,-448,-185,-201,-27.34375,-11.29150390625,-12.26806640625,-4291,2503,-1066,17568,517,-31203,96.50390625,2.8399658203125,-171.4031982421875,351,3.51,0
514,105034,1.475,289903,1475,1,182,2025,-292,0.0888671875,0.98876953125,-0.142578125,117,337,-11,7.14111328125,20.56884765625,-0.67138671875,-108,2370,5214,18538,-316,24165,101.832275390625,-1.73583984375,132.7423095703125,355,3.55,0
515,105035,1.476,289904,1476,2,-168,1835,899,-0.08203125,0.89599609375,0.43896484375,-29,232,-60,-1.77001953125,14.16015625,-3.662109375,1021,2608,-3539,12328,871,518,67.7197265625,4.7845458984375,2.845458984375,358,3.58,0
516,105036,1.481,289909,1481,0,3,2271,3,0.00146484375,1.10888671875,0.00146484375,-501,-228,-234,-30.57861328125,-13.916015625,-14.2822265625,-4322,2454,-1086,17512,546,-31223,96.1962890625,2.999267578125,-171.5130615234375,350,3.5,0
517,105037,1.483,289911,1483,2,-173,1839,907,-0.08447265625,0.89794921875,0.44287109375,-58,247,-58,-3.5400390625,15.07568359375,-3.5400390625,1028,2639,-3506,12324,889,540,67.69775390625,4.8834228515625,2.96630859375,358,3.58,0
518,105038,1.488,289916,1488,0,7,2273,27,0.00341796875,1.10986328125,0.01318359375,-533,-242,-253,-32.53173828125,-14.7705078125,-15.44189453125,-4312,2434,-1050,17482,563,-31235,96.031494140625,3.0926513671875,-171.5789794921875,350,3.5,0
519,105039,1.49,289918,1490,2,-168,1842,913,-0.08203125,0.8994140625,0.44580078125,-73,260,-63,-4.45556640625,15.869140625,-3.84521484375,1047,2665,-3463,12321,898,553,67.6812744140625,4.932861328125,3.0377197265625,358,3.58,0
520,105040,1.495,289923,1495,0,1,2269,41,0.00048828125,1.10791015625,0.02001953125,-559,-262,-268,-34.11865234375,-15.9912109375,-16.357421875,-4306,2460,-1036,17449,580,-31247,95.8502197265625,3.18603515625,-171.6448974609375,350,3.5,0
521,105041,1.496,289924,1496,1,232,2133,-324,0.11328125,1.04150390625,-0.158203125,63,332,-105,3.84521484375,20.263671875,-6.40869140625,-108,2346,5221,18555,-316,24254,101.9256591796875,-1.73583984375,133.231201171875,355,3.55,0
522,105042,1.497,289925,1497,2,-164,1846,922,-0.080078125,0.9013671875,0.4501953125,-72,282,-73,-4.39453125,17.2119140625,-4.45556640625,1047,2658,-3498,12319,909,566,67.6702880859375,4.9932861328125,3.109130859375,358,3.58,0
523,105043,1.502,289930,1502,0,-2,2268,66,-0.0009765625,1.107421875,0.0322265625,-618,-322,-298,-37.7197265625,-19.6533203125,-18.1884765625,-4308,2454,-1050,17380,617,-31277,95.47119140625,3.3892822265625,-171.8096923828125,350,3.5,0
524,105044,1.504,289932,1504,2,-169,1856,933,-0.08251953125,0.90625,0.45556640625,-40,311,-90,-2.44140625,18.98193359375,-5.4931640625,1067,2645,-3506,12317,932,595,67.6593017578125,5.11962890625,3.2684326171875,358,3.58,0
525,105045,1.509,289937,1509,0,4,2273,93,0.001953125,1.10986328125,0.04541015625,-656,-352,-320,-40.0390625,-21.484375,-19.53125,-4292,2456,-1058,17342,637,-31294,95.262451171875,3.4991455078125,-171.903076171875,349,3.49,0
526,105046,1.511,289939,1511,2,-177,1865,930,-0.08642578125,0.91064453125,0.4541015625,-24,335,-95,-1.46484375,20.44677734375,-5.79833984375,1035,2657,-3521,12317,944,610,67.6593017578125,5.185546875,3.350830078125,358,3.58,0
527,105047,1.516,289944,1516,0,20,2285,141,0.009765625,1.11572265625,0.06884765625,-745,-355,-359,-45.47119140625,-21.66748046875,-21.91162109375,-4307,2404,-986,17258,681,-31328,94.801025390625,3.7408447265625,-172.08984375,349,3.49,0
528,105048,1.517,289945,1517,1,284,2008,-531,0.138671875,0.98046875,-0.25927734375,-80,86,-114,-4.8828125,5.2490234375,-6.9580078125,-109,2333,5206,18544,-301,24290,101.865234375,-1.6534423828125,133.428955078125,355,3.55,0
529,105049,1.518,289946,1518,2,-208,1886,894,-0.1015625,0.9208984375,0.4365234375,-31,345,-104,-1.89208984375,21.05712890625,-6.34765625,1042,2612,-3498,12317,970,642,67.6593017578125,5.328369140625,3.526611328125,358,3.58,0
530,105050,1.523,289951,1523,0,22,2272,158,0.0107421875,1.109375,0.0771484375,-790,-326,-378,-48.2177734375,-19.8974609375,-23.0712890625,-4294,2414,-980,17213,705,-31342,94.5538330078125,3.8726806640625,-172.166748046875,349,3.49,0
531,105051,1.525,289953,1525,2,-216,1891,870,-0.10546875,0.92333984375,0.4248046875,-42,357,-95,-2.5634765625,21.78955078125,-5.79833984375,1067,2603,-3496,12316,983,659,67.65380859375,5.3997802734375,3.6199951171875,357,3.57,0
532,105052,1.532,289960,1532,0,15,2266,175,0.00732421875,1.1064453125,0.08544921875,-834,-283,-396,-50.9033203125,-17.27294921875,-24.169921875,-4288,2379,-972,17165,728,-31354,94.2901611328125,3.9990234375,-172.232666015625,349,3.49,0
