record_index,sequence,time_s,tick_ms,tick_elapsed_ms,device_id,accel_x_raw,accel_y_raw,accel_z_raw,accel_x_g,accel_y_g,accel_z_g,gyro_x_raw,gyro_y_raw,gyro_z_raw,gyro_x_dps,gyro_y_dps,gyro_z_dps,mag_x_raw,mag_y_raw,mag_z_raw,angle_x_raw,angle_y_raw,angle_z_raw,angle_x_deg,angle_y_deg,angle_z_deg,battery_raw,battery_voltage,sequence_gap_before
0,1011,0.0,3450,0,2,67,1915,725,0.03271484375,0.93505859375,0.35400390625,-4,-5,10,-0.244140625,-0.30517578125,0.6103515625,1681,2117,-4034,12516,-329,3750,68.75244140625,-1.8072509765625,20.599365234375,357,3.57,0
1,1012,0.0,3450,0,0,-48,2012,-349,-0.0234375,0.982421875,-0.17041015625,-4,-7,9,-0.244140625,-0.42724609375,0.54931640625,-5430,808,-2171,17971,358,-12733,98.7176513671875,1.966552734375,-69.9444580078125,348,3.48,0
2,1013,0.002,3452,2,2,60,1913,730,0.029296875,0.93408203125,0.3564453125,-5,-7,6,-0.30517578125,-0.42724609375,0.3662109375,1722,2168,-4088,12516,-329,3750,68.75244140625,-1.8072509765625,20.599365234375,358,3.58,0
3,1014,0.005,3455,5,0,-52,2011,-356,-0.025390625,0.98193359375,-0.173828125,-4,-9,10,-0.244140625,-0.54931640625,0.6103515625,-5443,831,-2237,17972,357,-12732,98.72314453125,1.9610595703125,-69.93896484375,349,3.49,0
4,1015,0.006,3456,6,1,-51,1983,-482,-0.02490234375,0.96826171875,-0.2353515625,11,-5,8,0.67138671875,-0.30517578125,0.48828125,-1420,493,5966,18822,241,-30281,103.392333984375,1.3238525390625,-166.3385009765625,357,3.57,0
5,1016,0.007,3457,7,2,60,1912,730,0.029296875,0.93359375,0.3564453125,-4,-10,7,-0.244140625,-0.6103515625,0.42724609375,1705,2170,-4085,12516,-329,3750,68.75244140625,-1.8072509765625,20.599365234375,358,3.58,0
6,1017,0.012,3462,12,0,-50,2008,-360,-0.0244140625,0.98046875,-0.17578125,-4,-10,8,-0.244140625,-0.6103515625,0.48828125,-5430,829,-2219,17972,357,-12731,98.72314453125,1.9610595703125,-69.9334716796875,349,3.49,0
7,1018,0.013,3463,13,1,-53,1983,-480,-0.02587890625,0.96826171875,-0.234375,10,-5,4,0.6103515625,-0.30517578125,0.244140625,-1421,468,5930,18822,241,-30281,103.392333984375,1.3238525390625,-166.3385009765625,357,3.57,0
8,1019,0.014,3464,14,2,62,1911,729,0.0302734375,0.93310546875,0.35595703125,-4,-7,7,-0.244140625,-0.42724609375,0.42724609375,1713,2147,-4060,12516,-329,3749,68.75244140625,-1.8072509765625,20.5938720703125,358,3.58,0
9,1020,0.019,3469,19,0,-52,2010,-354,-0.025390625,0.9814453125,-0.1728515625,-7,-17,8,-0.42724609375,-1.03759765625,0.48828125,-5429,805,-2201,17973,356,-12731,98.7286376953125,1.95556640625,-69.9334716796875,349,3.49,0
10,1021,0.02,3470,20,1,-49,1980,-475,-0.02392578125,0.966796875,-0.23193359375,7,-2,0,0.42724609375,-0.1220703125,0.0,-1430,496,5923,18823,241,-30280,103.3978271484375,1.3238525390625,-166.3330078125,357,3.57,0
11,1022,0.021,3471,21,2,64,1912,727,0.03125,0.93359375,0.35498046875,-6,-5,6,-0.3662109375,-0.30517578125,0.3662109375,1680,2139,-4024,12515,-329,3749,68.7469482421875,-1.8072509765625,20.5938720703125,358,3.58,0
12,1023,0.026,3476,26,0,-47,2010,-357,-0.02294921875,0.9814453125,-0.17431640625,-8,-19,12,-0.48828125,-1.15966796875,0.732421875,-5408,798,-2180,17973,356,-12731,98.7286376953125,1.95556640625,-69.9334716796875,349,3.49,0
13,1024,0.027,3477,27,1,-49,1983,-473,-0.02392578125,0.96826171875,-0.23095703125,2,1,2,0.1220703125,0.06103515625,0.1220703125,-1430,509,5931,18823,241,-30280,103.3978271484375,1.3238525390625,-166.3330078125,357,3.57,0
14,1025,0.028,3478,28,2,64,1913,726,0.03125,0.93408203125,0.3544921875,-12,-3,6,-0.732421875,-0.18310546875,0.3662109375,1677,2136,-4058,12515,-329,3749,68.7469482421875,-1.8072509765625,20.5938720703125,358,3.58,0
15,1026,0.033,3483,33,0,-47,2010,-357,-0.02294921875,0.9814453125,-0.17431640625,-8,-19,12,-0.48828125,-1.15966796875,0.732421875,-5408,798,-2180,17973,356,-12731,98.7286376953125,1.95556640625,-69.9334716796875,349,3.49,0
16,1027,0.034,3484,34,1,-49,1978,-474,-0.02392578125,0.9658203125,-0.2314453125,2,3,2,0.1220703125,0.18310546875,0.1220703125,-1429,518,5944,18823,241,-30280,103.3978271484375,1.3238525390625,-166.3330078125,357,3.57,0
17,1028,0.035,3485,35,2,62,1914,726,0.0302734375,0.9345703125,0.3544921875,-13,-5,6,-0.79345703125,-0.30517578125,0.3662109375,1689,2159,-4055,12515,-329,3749,68.7469482421875,-1.8072509765625,20.5938720703125,358,3.58,0
18,1029,0.04,3490,40,0,-44,2013,-352,-0.021484375,0.98291015625,-0.171875,-6,-27,13,-0.3662109375,-1.64794921875,0.79345703125,-5433,803,-2166,17974,356,-12731,98.734130859375,1.95556640625,-69.9334716796875,349,3.49,0
19,1030,0.041,3491,41,1,-54,1975,-472,-0.0263671875,0.96435546875,-0.23046875,6,-4,0,0.3662109375,-0.244140625,0.0,-1409,504,5909,18823,241,-30280,103.3978271484375,1.3238525390625,-166.3330078125,357,3.57,0
20,1031,0.042,3492,42,2,60,1915,726,0.029296875,0.93505859375,0.3544921875,-10,-7,6,-0.6103515625,-0.42724609375,0.3662109375,1676,2152,-4008,12515,-329,3749,68.7469482421875,-1.8072509765625,20.5938720703125,358,3.58,0
21,1032,0.047,3497,47,0,-42,2013,-350,-0.0205078125,0.98291015625,-0.1708984375,-8,-31,15,-0.48828125,-1.89208984375,0.91552734375,-5440,786,-2176,17974,356,-12731,98.734130859375,1.95556640625,-69.9334716796875,349,3.49,0
22,1033,0.048,3498,48,1,-54,1974,-476,-0.0263671875,0.9638671875,-0.232421875,9,-8,0,0.54931640625,-0.48828125,0.0,-1410,500,5865,18823,241,-30280,103.3978271484375,1.3238525390625,-166.3330078125,357,3.57,0
23,1034,0.049,3499,49,2,58,1917,728,0.0283203125,0.93603515625,0.35546875,-9,-12,7,-0.54931640625,-0.732421875,0.42724609375,1682,2163,-4033,12515,-329,3748,68.7469482421875,-1.8072509765625,20.58837890625,358,3.58,0
24,1035,0.054,3504,54,0,-42,2011,-350,-0.0205078125,0.98193359375,-0.1708984375,-5,-37,16,-0.30517578125,-2.25830078125,0.9765625,-5438,770,-2161,17974,356,-12731,98.734130859375,1.95556640625,-69.9334716796875,349,3.49,0
25,1036,0.055,3505,55,1,-49,1976,-482,-0.02392578125,0.96484375,-0.2353515625,12,-20,0,0.732421875,-1.220703125,0.0,-1384,510,5799,18823,241,-30280,103.3978271484375,1.3238525390625,-166.3330078125,357,3.57,0
26,1037,0.056,3506,56,2,59,1917,727,0.02880859375,0.93603515625,0.35498046875,-8,-14,7,-0.48828125,-0.8544921875,0.42724609375,1701,2175,-4026,12515,-329,3748,68.7469482421875,-1.8072509765625,20.58837890625,358,3.58,0
27,1038,0.061,3511,61,0,-41,2010,-347,-0.02001953125,0.9814453125,-0.16943359375,-4,-38,17,-0.244140625,-2.3193359375,1.03759765625,-5412,768,-2159,17975,355,-12731,98.7396240234375,1.9500732421875,-69.9334716796875,349,3.49,0
28,1039,0.062,3512,62,1,-46,1972,-482,-0.0224609375,0.962890625,-0.2353515625,9,-23,0,0.54931640625,-1.40380859375,0.0,-1406,495,5793,18823,241,-30280,103.3978271484375,1.3238525390625,-166.3330078125,356,3.56,0
29,1040,0.074,3524,74,1,-43,1974,-484,-0.02099609375,0.9638671875,-0.236328125,10,-20,3,0.6103515625,-1.220703125,0.18310546875,-1417,483,5751,18823,241,-30280,103.3978271484375,1.3238525390625,-166.3330078125,356,3.56,0
30,1041,0.074,3524,74,2,68,1918,725,0.033203125,0.9365234375,0.35400390625,-12,-10,4,-0.732421875,-0.6103515625,0.244140625,1710,2146,-4046,12515,-328,3748,68.7469482421875,-1.8017578125,20.58837890625,357,3.57,0
31,1042,0.076,3526,76,1,-44,1975,-483,-0.021484375,0.96435546875,-0.23583984375,14,-18,2,0.8544921875,-1.0986328125,0.1220703125,-1445,475,5813,18823,241,-30280,103.3978271484375,1.3238525390625,-166.3330078125,356,3.56,0
32,1043,0.077,3527,77,2,71,1916,725,0.03466796875,0.935546875,0.35400390625,-13,-7,4,-0.79345703125,-0.42724609375,0.244140625,1702,2111,-4042,12515,-328,3748,68.7469482421875,-1.8017578125,20.58837890625,357,3.57,0
33,1044,0.082,3532,82,0,-39,2012,-354,-0.01904296875,0.982421875,-0.1728515625,-8,-32,12,-0.48828125,-1.953125,0.732421875,-5436,821,-2257,17975,354,-12731,98.7396240234375,1.944580078125,-69.9334716796875,349,3.49,0
34,1045,0.083,3533,83,1,-44,1979,-486,-0.021484375,0.96630859375,-0.2373046875,16,-20,3,0.9765625,-1.220703125,0.18310546875,-1444,486,5818,18823,241,-30280,103.3978271484375,1.3238525390625,-166.3330078125,356,3.56,0
35,1046,0.084,3534,84,2,74,1912,728,0.0361328125,0.93359375,0.35546875,-14,-8,3,-0.8544921875,-0.48828125,0.18310546875,1672,2096,-4103,12515,-328,3748,68.7469482421875,-1.8017578125,20.58837890625,357,3.57,0
36,1047,0.089,3539,89,0,-34,2009,-354,-0.0166015625,0.98095703125,-0.1728515625,-3,-19,15,-0.18310546875,-1.15966796875,0.91552734375,-5429,823,-2266,17975,355,-12731,98.7396240234375,1.9500732421875,-69.9334716796875,349,3.49,0
37,1048,0.09,3540,90,1,-44,1989,-481,-0.021484375,0.97119140625,-0.23486328125,17,-21,4,1.03759765625,-1.28173828125,0.244140625,-1421,481,5796,18823,241,-30279,103.3978271484375,1.3238525390625,-166.3275146484375,356,3.56,0
38,1049,0.091,3541,91,2,74,1911,729,0.0361328125,0.93310546875,0.35595703125,-13,-10,3,-0.79345703125,-0.6103515625,0.18310546875,1685,2095,-4069,12515,-328,3747,68.7469482421875,-1.8017578125,20.5828857421875,357,3.57,0
39,1050,0.097,3547,97,1,-47,1991,-482,-0.02294921875,0.97216796875,-0.2353515625,14,-23,4,0.8544921875,-1.40380859375,0.244140625,-1419,467,5783,18823,241,-30279,103.3978271484375,1.3238525390625,-166.3275146484375,356,3.56,0
40,1051,0.098,3548,98,2,77,1909,732,0.03759765625,0.93212890625,0.357421875,-12,-4,4,-0.732421875,-0.244140625,0.244140625,1707,2057,-4043,12514,-328,3747,68.741455078125,-1.8017578125,20.5828857421875,357,3.57,0
41,1052,0.103,3553,103,0,-36,2013,-358,-0.017578125,0.98291015625,-0.1748046875,0,-6,15,0.0,-0.3662109375,0.91552734375,-5439,806,-2272,17971,358,-12734,98.7176513671875,1.966552734375,-69.949951171875,349,3.49,0
42,1053,0.104,3554,104,1,-49,1996,-478,-0.02392578125,0.974609375,-0.2333984375,10,-20,6,0.6103515625,-1.220703125,0.3662109375,-1416,480,5817,18824,241,-30279,103.4033203125,1.3238525390625,-166.3275146484375,356,3.56,0
43,1054,0.105,3555,105,2,77,1909,732,0.03759765625,0.93212890625,0.357421875,-14,-2,3,-0.8544921875,-0.1220703125,0.18310546875,1703,2048,-4060,12514,-328,3747,68.741455078125,-1.8017578125,20.5828857421875,357,3.57,0
44,1055,0.11,3560,110,0,-35,2018,-357,-0.01708984375,0.9853515625,-0.17431640625,1,-4,18,0.06103515625,-0.244140625,1.0986328125,-5424,753,-2236,17968,362,-12736,98.701171875,1.988525390625,-69.9609375,349,3.49,0
45,1056,0.111,3561,111,1,-44,1990,-469,-0.021484375,0.9716796875,-0.22900390625,5,-8,5,0.30517578125,-0.48828125,0.30517578125,-1420,487,5866,18824,241,-30279,103.4033203125,1.3238525390625,-166.3275146484375,356,3.56,0
46,1057,0.112,3562,112,2,77,1910,732,0.03759765625,0.9326171875,0.357421875,-14,-3,4,-0.8544921875,-0.18310546875,0.244140625,1712,2068,-4054,12514,-328,3747,68.741455078125,-1.8017578125,20.5828857421875,357,3.57,0
47,1058,0.117,3567,117,0,-40,2017,-356,-0.01953125,0.98486328125,-0.173828125,-3,-6,16,-0.18310546875,-0.3662109375,0.9765625,-5420,774,-2213,17966,363,-12738,98.690185546875,1.9940185546875,-69.971923828125,349,3.49,0
48,1059,0.118,3568,118,1,-43,1983,-473,-0.02099609375,0.96826171875,-0.23095703125,6,-2,7,0.3662109375,-0.1220703125,0.42724609375,-1433,498,5854,18824,241,-30279,103.4033203125,1.3238525390625,-166.3275146484375,356,3.56,0
49,1060,0.119,3569,119,2,75,1910,731,0.03662109375,0.9326171875,0.35693359375,-7,-7,6,-0.42724609375,-0.42724609375,0.3662109375,1737,2045,-4037,12514,-329,3747,68.741455078125,-1.8072509765625,20.5828857421875,357,3.57,0
50,1061,0.124,3574,124,0,-40,2017,-356,-0.01953125,0.98486328125,-0.173828125,-3,-6,16,-0.18310546875,-0.3662109375,0.9765625,-5420,774,-2213,17966,363,-12738,98.690185546875,1.9940185546875,-69.971923828125,349,3.49,0
51,1062,0.125,3575,125,1,-44,1979,-473,-0.021484375,0.96630859375,-0.23095703125,1,5,5,0.06103515625,0.30517578125,0.30517578125,-1435,501,5860,18824,241,-30279,103.4033203125,1.3238525390625,-166.3275146484375,356,3.56,0
52,1063,0.126,3576,126,2,74,1912,728,0.0361328125,0.93359375,0.35546875,-6,-3,7,-0.3662109375,-0.18310546875,0.42724609375,1751,2055,-4003,12514,-329,3747,68.741455078125,-1.8072509765625,20.5828857421875,357,3.57,0
53,1064,0.139,3589,139,0,-42,2010,-349,-0.0205078125,0.9814453125,-0.17041015625,-7,-14,12,-0.42724609375,-0.8544921875,0.732421875,-5396,821,-2163,17959,370,-12743,98.6517333984375,2.032470703125,-69.9993896484375,348,3.48,0
54,1065,0.139,3589,139,1,-49,1973,-472,-0.02392578125,0.96337890625,-0.23046875,14,2,6,0.8544921875,0.1220703125,0.3662109375,-1446,517,5875,18824,241,-30279,103.4033203125,1.3238525390625,-166.3275146484375,356,3.56,0
55,1066,0.139,3589,139,2,73,1913,726,0.03564453125,0.93408203125,0.3544921875,-8,0,7,-0.48828125,0.0,0.42724609375,1744,2050,-4042,12514,-329,3748,68.741455078125,-1.8072509765625,20.58837890625,357,3.57,0
56,1067,0.139,3589,139,0,-33,2008,-350,-0.01611328125,0.98046875,-0.1708984375,-3,-19,14,-0.18310546875,-1.15966796875,0.8544921875,-5398,827,-2165,17957,372,-12745,98.6407470703125,2.04345703125,-70.0103759765625,348,3.48,0
57,1068,0.139,3589,139,1,-49,1975,-474,-0.02392578125,0.96435546875,-0.2314453125,14,-3,4,0.8544921875,-0.18310546875,0.244140625,-1456,519,5865,18824,241,-30279,103.4033203125,1.3238525390625,-166.3275146484375,356,3.56,0
58,1069,0.14,3590,140,2,69,1913,724,0.03369140625,0.93408203125,0.353515625,-12,8,10,-0.732421875,0.48828125,0.6103515625,1771,2051,-4032,12514,-329,3748,68.741455078125,-1.8072509765625,20.58837890625,357,3.57,0
59,1070,0.145,3595,145,0,-36,2011,-340,-0.017578125,0.98193359375,-0.166015625,0,-12,15,0.0,-0.732421875,0.91552734375,-5385,837,-2216,17953,375,-12748,98.6187744140625,2.0599365234375,-70.02685546875,348,3.48,0
60,1071,0.146,3596,146,1,-45,1971,-475,-0.02197265625,0.96240234375,-0.23193359375,12,-10,2,0.732421875,-0.6103515625,0.1220703125,-1418,520,5881,18824,241,-30278,103.4033203125,1.3238525390625,-166.322021484375,355,3.55,0
61,1072,0.147,3597,147,2,67,1914,724,0.03271484375,0.9345703125,0.353515625,-12,8,10,-0.732421875,0.48828125,0.6103515625,1769,2042,-4026,12514,-329,3748,68.741455078125,-1.8072509765625,20.58837890625,357,3.57,0
62,1073,0.152,3602,152,0,-34,2013,-343,-0.0166015625,0.98291015625,-0.16748046875,3,-7,17,0.18310546875,-0.42724609375,1.03759765625,-5409,823,-2221,17952,377,-12749,98.61328125,2.0709228515625,-70.0323486328125,349,3.49,0
63,1074,0.153,3603,153,1,-43,1971,-478,-0.02099609375,0.96240234375,-0.2333984375,13,-13,-1,0.79345703125,-0.79345703125,-0.06103515625,-1446,536,5858,18824,241,-30278,103.4033203125,1.3238525390625,-166.322021484375,356,3.56,0
64,1075,0.162,3612,162,2,64,1919,727,0.03125,0.93701171875,0.35498046875,-17,4,11,-1.03759765625,0.244140625,0.67138671875,1791,2024,-4041,12514,-329,3748,68.741455078125,-1.8072509765625,20.58837890625,357,3.57,0
65,1076,0.166,3616,166,0,-42,2026,-349,-0.0205078125,0.9892578125,-0.17041015625,0,7,17,0.0,0.42724609375,1.03759765625,-5424,775,-2202,17947,381,-12751,98.5858154296875,2.0928955078125,-70.0433349609375,349,3.49,0
66,1077,0.167,3617,167,1,-54,1990,-484,-0.0263671875,0.9716796875,-0.236328125,24,-13,-4,1.46484375,-0.79345703125,-0.244140625,-1471,544,5868,18824,241,-30278,103.4033203125,1.3238525390625,-166.322021484375,356,3.56,0
67,1078,0.168,3618,168,2,65,1925,731,0.03173828125,0.93994140625,0.35693359375,-18,-1,11,-1.0986328125,-0.06103515625,0.67138671875,1788,2044,-4036,12513,-329,3748,68.7359619140625,-1.8072509765625,20.58837890625,356,3.56,0
68,1079,0.173,3623,173,0,-39,2028,-349,-0.01904296875,0.990234375,-0.17041015625,-5,6,15,-0.30517578125,0.3662109375,0.91552734375,-5445,771,-2173,17945,383,-12751,98.5748291015625,2.1038818359375,-70.0433349609375,349,3.49,0
69,1080,0.174,3624,174,1,-52,1992,-488,-0.025390625,0.97265625,-0.23828125,23,-16,-5,1.40380859375,-0.9765625,-0.30517578125,-1468,550,5854,18824,241,-30278,103.4033203125,1.3238525390625,-166.322021484375,356,3.56,0
70,1081,0.175,3625,175,2,69,1925,733,0.03369140625,0.93994140625,0.35791015625,-15,3,10,-0.91552734375,0.18310546875,0.6103515625,1777,2027,-4022,12513,-329,3749,68.7359619140625,-1.8072509765625,20.5938720703125,356,3.56,0
71,1082,0.181,3631,181,1,-46,1986,-484,-0.0224609375,0.9697265625,-0.236328125,13,-16,-1,0.79345703125,-0.9765625,-0.06103515625,-1462,559,5832,18824,241,-30278,103.4033203125,1.3238525390625,-166.322021484375,356,3.56,0
72,1083,0.182,3632,182,2,71,1924,733,0.03466796875,0.939453125,0.35791015625,-15,6,8,-0.91552734375,0.3662109375,0.48828125,1751,2067,-3995,12513,-329,3749,68.7359619140625,-1.8072509765625,20.5938720703125,356,3.56,0
73,1084,0.188,3638,188,1,-41,1988,-484,-0.02001953125,0.970703125,-0.236328125,12,-11,2,0.732421875,-0.67138671875,0.1220703125,-1462,554,5837,18824,241,-30278,103.4033203125,1.3238525390625,-166.322021484375,356,3.56,0
74,1085,0.189,3639,189,2,69,1919,733,0.03369140625,0.93701171875,0.35791015625,-15,6,8,-0.91552734375,0.3662109375,0.48828125,1741,2119,-4003,12513,-329,3749,68.7359619140625,-1.8072509765625,20.5938720703125,356,3.56,0
75,1086,0.194,3644,194,0,-40,2022,-356,-0.01953125,0.9873046875,-0.173828125,-14,6,10,-0.8544921875,0.3662109375,0.6103515625,-5461,786,-2210,17938,388,-12753,98.536376953125,2.13134765625,-70.0543212890625,349,3.49,0
76,1087,0.195,3645,195,1,-43,1986,-487,-0.02099609375,0.9697265625,-0.23779296875,13,-7,3,0.79345703125,-0.42724609375,0.18310546875,-1459,550,5826,18824,241,-30277,103.4033203125,1.3238525390625,-166.3165283203125,356,3.56,0
77,1088,0.196,3646,196,2,67,1917,733,0.03271484375,0.93603515625,0.35791015625,-13,6,8,-0.79345703125,0.3662109375,0.48828125,1746,2138,-4017,12513,-329,3749,68.7359619140625,-1.8072509765625,20.5938720703125,356,3.56,0
78,1089,0.201,3651,201,0,-49,2005,-357,-0.02392578125,0.97900390625,-0.17431640625,-3,-2,8,-0.18310546875,-0.1220703125,0.48828125,-5444,840,-2186,17931,394,-12756,98.4979248046875,2.164306640625,-70.07080078125,349,3.49,0
79,1090,0.202,3652,202,1,-38,1984,-490,-0.0185546875,0.96875,-0.2392578125,14,-6,2,0.8544921875,-0.3662109375,0.1220703125,-1446,571,5863,18825,241,-30277,103.4088134765625,1.3238525390625,-166.3165283203125,356,3.56,0
80,1091,0.203,3653,203,2,64,1916,732,0.03125,0.935546875,0.357421875,-10,4,10,-0.6103515625,0.244140625,0.6103515625,1760,2134,-3986,12513,-329,3749,68.7359619140625,-1.8072509765625,20.5938720703125,356,3.56,0
81,1092,0.208,3658,208,0,-50,2002,-359,-0.0244140625,0.9775390625,-0.17529296875,-1,-4,8,-0.06103515625,-0.244140625,0.48828125,-5412,826,-2142,17929,396,-12757,98.4869384765625,2.17529296875,-70.0762939453125,349,3.49,0
82,1093,0.209,3659,209,1,-42,1990,-490,-0.0205078125,0.9716796875,-0.2392578125,16,-5,5,0.9765625,-0.30517578125,0.30517578125,-1436,584,5862,18825,241,-30277,103.4088134765625,1.3238525390625,-166.3165283203125,356,3.56,0
83,1094,0.21,3660,210,2,59,1916,731,0.02880859375,0.935546875,0.35693359375,-9,7,13,-0.54931640625,0.42724609375,0.79345703125,1762,2100,-3960,12513,-329,3750,68.7359619140625,-1.8072509765625,20.599365234375,356,3.56,0
84,1095,0.215,3665,215,0,-50,2008,-354,-0.0244140625,0.98046875,-0.1728515625,2,-12,12,0.1220703125,-0.732421875,0.732421875,-5404,838,-2145,17928,397,-12758,98.4814453125,2.1807861328125,-70.081787109375,349,3.49,0
85,1096,0.216,3666,216,1,-45,1986,-489,-0.02197265625,0.9697265625,-0.23876953125,11,-9,6,0.67138671875,-0.54931640625,0.3662109375,-1438,582,5821,18825,241,-30277,103.4088134765625,1.3238525390625,-166.3165283203125,356,3.56,0
86,1097,0.224,3674,224,2,56,1917,729,0.02734375,0.93603515625,0.35595703125,-10,8,13,-0.6103515625,0.48828125,0.79345703125,1758,2115,-3964,12513,-329,3750,68.7359619140625,-1.8072509765625,20.599365234375,356,3.56,0
87,1098,0.225,3675,225,0,-46,2013,-354,-0.0224609375,0.98291015625,-0.1728515625,5,-12,12,0.30517578125,-0.732421875,0.732421875,-5425,821,-2109,17933,392,-12758,98.5089111328125,2.1533203125,-70.081787109375,349,3.49,0
88,1099,0.225,3675,225,1,-46,1978,-487,-0.0224609375,0.9658203125,-0.23779296875,9,-12,4,0.54931640625,-0.732421875,0.244140625,-1452,560,5818,18825,241,-30277,103.4088134765625,1.3238525390625,-166.3165283203125,356,3.56,0
89,1100,0.225,3675,225,2,50,1918,725,0.0244140625,0.9365234375,0.35400390625,-15,9,15,-0.91552734375,0.54931640625,0.91552734375,1765,2121,-3915,12513,-329,3750,68.7359619140625,-1.8072509765625,20.599365234375,356,3.56,0
90,1101,0.229,3679,229,0,-46,2013,-354,-0.0224609375,0.98291015625,-0.1728515625,5,-12,12,0.30517578125,-0.732421875,0.732421875,-5425,821,-2109,17933,392,-12758,98.5089111328125,2.1533203125,-70.081787109375,349,3.49,0
91,1102,0.23,3680,230,1,-46,1972,-484,-0.0224609375,0.962890625,-0.236328125,5,-10,5,0.30517578125,-0.6103515625,0.30517578125,-1463,579,5843,18825,241,-30277,103.4088134765625,1.3238525390625,-166.3165283203125,356,3.56,0
92,1103,0.231,3681,231,2,50,1916,724,0.0244140625,0.935546875,0.353515625,-15,7,14,-0.91552734375,0.42724609375,0.8544921875,1743,2114,-3918,12513,-329,3751,68.7359619140625,-1.8072509765625,20.6048583984375,356,3.56,0
93,1104,0.236,3686,236,0,-46,2016,-351,-0.0224609375,0.984375,-0.17138671875,5,-15,11,0.30517578125,-0.91552734375,0.67138671875,-5416,804,-2123,17933,392,-12758,98.5089111328125,2.1533203125,-70.081787109375,349,3.49,0
94,1105,0.237,3687,237,1,-43,1967,-485,-0.02099609375,0.96044921875,-0.23681640625,14,-5,4,0.8544921875,-0.30517578125,0.244140625,-1420,569,5818,18825,241,-30277,103.4088134765625,1.3238525390625,-166.3165283203125,357,3.57,0
95,1106,0.238,3688,238,2,51,1914,724,0.02490234375,0.9345703125,0.353515625,-15,4,13,-0.91552734375,0.244140625,0.79345703125,1742,2093,-3927,12513,-329,3751,68.7359619140625,-1.8072509765625,20.6048583984375,356,3.56,0
96,1107,0.243,3693,243,0,-40,2017,-352,-0.01953125,0.98486328125,-0.171875,1,-19,12,0.06103515625,-1.15966796875,0.732421875,-5410,779,-2133,17935,390,-12758,98.5198974609375,2.142333984375,-70.081787109375,349,3.49,0
97,1108,0.244,3694,244,1,-39,1966,-480,-0.01904296875,0.9599609375,-0.234375,18,-1,2,1.0986328125,-0.06103515625,0.1220703125,-1446,551,5798,18825,241,-30276,103.4088134765625,1.3238525390625,-166.31103515625,357,3.57,0
98,1109,0.245,3695,245,2,57,1910,724,0.02783203125,0.9326171875,0.353515625,-12,2,10,-0.732421875,0.1220703125,0.6103515625,1743,2080,-3910,12512,-329,3751,68.73046875,-1.8072509765625,20.6048583984375,355,3.55,0
99,1110,0.25,3700,250,0,-33,2016,-349,-0.01611328125,0.984375,-0.17041015625,-2,-26,11,-0.1220703125,-1.5869140625,0.67138671875,-5427,792,-2154,17935,390,-12758,98.5198974609375,2.142333984375,-70.081787109375,349,3.49,0
100,1111,0.251,3701,251,1,-40,1968,-480,-0.01953125,0.9609375,-0.234375,17,3,2,1.03759765625,0.18310546875,0.1220703125,-1442,534,5767,18825,241,-30276,103.4088134765625,1.3238525390625,-166.31103515625,357,3.57,0
101,1112,0.252,3702,252,2,61,1909,725,0.02978515625,0.93212890625,0.35400390625,-14,2,8,-0.8544921875,0.1220703125,0.48828125,1743,2093,-3904,12512,-329,3751,68.73046875,-1.8072509765625,20.6048583984375,356,3.56,0
102,1113,0.258,3708,258,1,-34,1973,-480,-0.0166015625,0.96337890625,-0.234375,8,6,0,0.48828125,0.3662109375,0.0,-1451,533,5775,18825,241,-30276,103.4088134765625,1.3238525390625,-166.31103515625,357,3.57,0
103,1114,0.259,3709,259,2,65,1909,726,0.03173828125,0.93212890625,0.3544921875,-17,4,6,-1.03759765625,0.244140625,0.3662109375,1723,2067,-3965,12512,-329,3751,68.73046875,-1.8072509765625,20.6048583984375,356,3.56,0
104,1115,0.264,3714,264,0,-28,2009,-338,-0.013671875,0.98095703125,-0.1650390625,-1,-22,15,-0.06103515625,-1.3427734375,0.91552734375,-5455,812,-2133,17936,389,-12758,98.525390625,2.1368408203125,-70.081787109375,349,3.49,0
105,1116,0.265,3715,265,1,-34,1969,-476,-0.0166015625,0.96142578125,-0.232421875,9,1,4,0.54931640625,0.06103515625,0.244140625,-1487,517,5772,18826,240,-30276,103.414306640625,1.318359375,-166.31103515625,357,3.57,0
106,1117,0.266,3716,266,2,70,1910,729,0.0341796875,0.9326171875,0.35595703125,-22,5,4,-1.3427734375,0.30517578125,0.244140625,1706,2044,-4040,12512,-329,3751,68.73046875,-1.8072509765625,20.6048583984375,356,3.56,0
107,1118,0.272,3722,272,1,-38,1972,-479,-0.0185546875,0.962890625,-0.23388671875,19,-2,0,1.15966796875,-0.1220703125,0.0,-1469,525,5835,18826,240,-30276,103.414306640625,1.318359375,-166.31103515625,357,3.57,0
108,1119,0.273,3723,273,2,71,1909,732,0.03466796875,0.93212890625,0.357421875,-22,6,2,-1.3427734375,0.3662109375,0.1220703125,1706,2038,-4018,12512,-329,3751,68.73046875,-1.8072509765625,20.6048583984375,357,3.57,0
109,1120,0.278,3728,278,0,-33,2006,-336,-0.01611328125,0.9794921875,-0.1640625,0,-22,18,0.0,-1.3427734375,1.0986328125,-5409,803,-2113,17936,389,-12758,98.525390625,2.1368408203125,-70.081787109375,348,3.48,0
110,1121,0.279,3729,279,1,-35,1978,-477,-0.01708984375,0.9658203125,-0.23291015625,23,-4,-1,1.40380859375,-0.244140625,-0.06103515625,-1461,549,5840,18827,240,-30276,103.4197998046875,1.318359375,-166.31103515625,357,3.57,0
111,1122,0.28,3730,280,2,69,1908,734,0.03369140625,0.931640625,0.3583984375,-19,5,2,-1.15966796875,0.30517578125,0.1220703125,1685,2049,-4016,12512,-329,3751,68.73046875,-1.8072509765625,20.6048583984375,357,3.57,0
112,1123,0.288,3738,288,0,-33,2006,-336,-0.01611328125,0.9794921875,-0.1640625,0,-22,18,0.0,-1.3427734375,1.0986328125,-5409,803,-2113,17936,389,-12758,98.525390625,2.1368408203125,-70.081787109375,348,3.48,0
113,1124,0.288,3738,288,1,-37,1978,-481,-0.01806640625,0.9658203125,-0.23486328125,22,-5,0,1.3427734375,-0.30517578125,0.0,-1457,535,5841,18828,240,-30275,103.42529296875,1.318359375,-166.3055419921875,357,3.57,0
114,1125,0.289,3739,289,2,66,1906,734,0.0322265625,0.9306640625,0.3583984375,-18,4,2,-1.0986328125,0.244140625,0.1220703125,1663,2045,-4018,12512,-329,3751,68.73046875,-1.8072509765625,20.6048583984375,357,3.57,0
115,1126,0.293,3743,293,1,-31,1983,-480,-0.01513671875,0.96826171875,-0.234375,14,-5,2,0.8544921875,-0.30517578125,0.1220703125,-1473,528,5872,18830,240,-30275,103.436279296875,1.318359375,-166.3055419921875,357,3.57,0
116,1127,0.294,3744,294,2,64,1905,734,0.03125,0.93017578125,0.3583984375,-17,4,3,-1.03759765625,0.244140625,0.18310546875,1669,2046,-3968,12512,-329,3751,68.73046875,-1.8072509765625,20.6048583984375,357,3.57,0
117,1128,0.299,3749,299,0,-41,2015,-350,-0.02001953125,0.98388671875,-0.1708984375,0,-29,19,0.0,-1.77001953125,1.15966796875,-5415,778,-2220,17937,387,-12758,98.5308837890625,2.1258544921875,-70.081787109375,348,3.48,0
118,1129,0.3,3750,300,1,-31,1985,-481,-0.01513671875,0.96923828125,-0.23486328125,15,-4,-2,0.91552734375,-0.244140625,-0.1220703125,-1465,509,5864,18831,240,-30275,103.4417724609375,1.318359375,-166.3055419921875,357,3.57,0
119,1130,0.301,3751,301,2,60,1905,733,0.029296875,0.93017578125,0.35791015625,-22,7,2,-1.3427734375,0.42724609375,0.1220703125,1648,2012,-3987,12511,-329,3751,68.7249755859375,-1.8072509765625,20.6048583984375,357,3.57,0
120,1131,0.306,3756,306,0,-39,2015,-359,-0.01904296875,0.98388671875,-0.17529296875,3,-24,16,0.18310546875,-1.46484375,0.9765625,-5428,767,-2191,17937,386,-12758,98.5308837890625,2.120361328125,-70.081787109375,348,3.48,0
121,1132,0.307,3757,307,1,-38,1996,-494,-0.0185546875,0.974609375,-0.2412109375,11,-10,-4,0.67138671875,-0.6103515625,-0.244140625,-1431,501,5909,18832,240,-30275,103.447265625,1.318359375,-166.3055419921875,357,3.57,0
122,1133,0.308,3758,308,2,58,1907,733,0.0283203125,0.93115234375,0.35791015625,-26,10,3,-1.5869140625,0.6103515625,0.18310546875,1665,2007,-3977,12511,-329,3751,68.7249755859375,-1.8072509765625,20.6048583984375,357,3.57,0
123,1134,0.314,3764,314,1,-37,1991,-500,-0.01806640625,0.97216796875,-0.244140625,10,-18,-3,0.6103515625,-1.0986328125,-0.18310546875,-1432,506,5906,18833,241,-30275,103.4527587890625,1.3238525390625,-166.3055419921875,357,3.57,0
124,1135,0.315,3765,315,2,56,1912,736,0.02734375,0.93359375,0.359375,-28,13,3,-1.708984375,0.79345703125,0.18310546875,1711,2046,-4026,12511,-329,3751,68.7249755859375,-1.8072509765625,20.6048583984375,357,3.57,0
125,1136,0.32,3770,320,0,-40,2019,-368,-0.01953125,0.98583984375,-0.1796875,3,-18,15,0.18310546875,-1.0986328125,0.91552734375,-5429,762,-2168,17937,386,-12757,98.5308837890625,2.120361328125,-70.0762939453125,348,3.48,0
126,1137,0.321,3771,321,1,-35,1992,-504,-0.01708984375,0.97265625,-0.24609375,13,-25,-1,0.79345703125,-1.52587890625,-0.06103515625,-1436,529,5904,18833,241,-30276,103.4527587890625,1.3238525390625,-166.31103515625,357,3.57,0
127,1138,0.322,3772,322,2,55,1915,738,0.02685546875,0.93505859375,0.3603515625,-29,12,2,-1.77001953125,0.732421875,0.1220703125,1720,2043,-4047,12511,-328,3751,68.7249755859375,-1.8017578125,20.6048583984375,358,3.58,0
128,1139,0.336,3786,336,0,-27,2024,-376,-0.01318359375,0.98828125,-0.18359375,6,-11,12,0.3662109375,-0.67138671875,0.732421875,-5418,780,-2146,17938,385,-12757,98.536376953125,2.1148681640625,-70.0762939453125,347,3.47,0
129,1140,0.341,3791,341,0,-22,2014,-368,-0.0107421875,0.9833984375,-0.1796875,4,-5,5,0.244140625,-0.30517578125,0.30517578125,-5398,779,-2146,17940,384,-12757,98.54736328125,2.109375,-70.0762939453125,347,3.47,0
130,1141,0.342,3792,342,1,-46,1991,-489,-0.0224609375,0.97216796875,-0.23876953125,17,3,2,1.03759765625,0.18310546875,0.1220703125,-1454,509,5906,18838,241,-30276,103.480224609375,1.3238525390625,-166.31103515625,357,3.57,0
131,1142,0.343,3793,343,2,56,1921,745,0.02734375,0.93798828125,0.36376953125,-19,5,6,-1.15966796875,0.30517578125,0.3662109375,1679,2109,-4015,12510,-328,3751,68.719482421875,-1.8017578125,20.6048583984375,358,3.58,0
132,1143,0.348,3798,348,0,-21,2013,-362,-0.01025390625,0.98291015625,-0.1767578125,7,-3,4,0.42724609375,-0.18310546875,0.244140625,-5391,793,-2141,17940,384,-12757,98.54736328125,2.109375,-70.0762939453125,347,3.47,0
133,1144,0.349,3799,349,1,-46,1991,-477,-0.0224609375,0.97216796875,-0.23291015625,10,9,1,0.6103515625,0.54931640625,0.06103515625,-1454,523,5907,18838,240,-30275,103.480224609375,1.318359375,-166.3055419921875,357,3.57,0
134,1145,0.35,3800,350,2,61,1923,742,0.02978515625,0.93896484375,0.3623046875,-14,3,9,-0.8544921875,0.18310546875,0.54931640625,1677,2102,-4037,12510,-328,3750,68.719482421875,-1.8017578125,20.599365234375,358,3.58,0
135,1146,0.355,3805,355,0,-21,2013,-362,-0.01025390625,0.98291015625,-0.1767578125,7,-3,4,0.42724609375,-0.18310546875,0.244140625,-5391,793,-2141,17940,384,-12757,98.54736328125,2.109375,-70.0762939453125,347,3.47,0
136,1147,0.356,3806,356,1,-47,1984,-476,-0.02294921875,0.96875,-0.232421875,11,13,-1,0.67138671875,0.79345703125,-0.06103515625,-1437,527,5901,18839,240,-30273,103.4857177734375,1.318359375,-166.2945556640625,357,3.57,0
137,1148,0.357,3807,357,2,63,1923,740,0.03076171875,0.93896484375,0.361328125,-13,7,10,-0.79345703125,0.42724609375,0.6103515625,1679,2119,-4048,12510,-328,3750,68.719482421875,-1.8017578125,20.599365234375,358,3.58,0
138,1149,0.362,3812,362,0,-20,2009,-349,-0.009765625,0.98095703125,-0.17041015625,5,-3,4,0.30517578125,-0.18310546875,0.244140625,-5441,779,-2159,17941,382,-12757,98.5528564453125,2.098388671875,-70.0762939453125,348,3.48,0
139,1150,0.363,3813,363,1,-44,1982,-471,-0.021484375,0.9677734375,-0.22998046875,5,26,-4,0.30517578125,1.5869140625,-0.244140625,-1427,533,5893,18839,239,-30270,103.4857177734375,1.3128662109375,-166.278076171875,356,3.56,0
140,1151,0.364,3814,364,2,64,1923,738,0.03125,0.93896484375,0.3603515625,-13,12,12,-0.79345703125,0.732421875,0.732421875,1670,2099,-4037,12510,-328,3750,68.719482421875,-1.8017578125,20.599365234375,358,3.58,0
141,1152,0.369,3819,369,0,-18,2009,-345,-0.0087890625,0.98095703125,-0.16845703125,2,-3,5,0.1220703125,-0.18310546875,0.30517578125,-5428,760,-2187,17941,382,-12757,98.5528564453125,2.098388671875,-70.0762939453125,348,3.48,0
142,1153,0.37,3820,370,1,-42,1982,-468,-0.0205078125,0.9677734375,-0.228515625,3,27,-4,0.18310546875,1.64794921875,-0.244140625,-1443,523,5880,18839,239,-30268,103.4857177734375,1.3128662109375,-166.26708984375,356,3.56,0
143,1154,0.371,3821,371,2,63,1923,736,0.03076171875,0.93896484375,0.359375,-13,16,13,-0.79345703125,0.9765625,0.79345703125,1657,2111,-4031,12510,-328,3750,68.719482421875,-1.8017578125,20.599365234375,358,3.58,0
144,1155,0.376,3826,376,0,-16,2010,-339,-0.0078125,0.9814453125,-0.16552734375,3,-5,6,0.18310546875,-0.30517578125,0.3662109375,-5415,745,-2192,17941,382,-12756,98.5528564453125,2.098388671875,-70.07080078125,348,3.48,0
145,1156,0.377,3827,377,1,-42,1973,-473,-0.0205078125,0.96337890625,-0.23095703125,4,21,-7,0.244140625,1.28173828125,-0.42724609375,-1465,543,5887,18840,239,-30265,103.4912109375,1.3128662109375,-166.2506103515625,356,3.56,0
146,1157,0.378,3828,378,2,62,1924,735,0.0302734375,0.939453125,0.35888671875,-12,14,16,-0.732421875,0.8544921875,0.9765625,1675,2109,-4028,12510,-328,3750,68.719482421875,-1.8017578125,20.599365234375,358,3.58,0
147,1158,0.383,3833,383,0,-16,2011,-340,-0.0078125,0.98193359375,-0.166015625,0,-3,4,0.0,-0.18310546875,0.244140625,-5416,749,-2223,17942,381,-12756,98.558349609375,2.0928955078125,-70.07080078125,348,3.48,0
148,1159,0.384,3834,384,1,-42,1971,-475,-0.0205078125,0.96240234375,-0.23193359375,3,12,-4,0.18310546875,0.732421875,-0.244140625,-1504,569,5877,18840,239,-30264,103.4912109375,1.3128662109375,-166.2451171875,356,3.56,0
149,1160,0.385,3835,385,2,62,1924,733,0.0302734375,0.939453125,0.35791015625,-11,10,17,-0.67138671875,0.6103515625,1.03759765625,1676,2085,-4020,12509,-328,3750,68.7139892578125,-1.8017578125,20.599365234375,358,3.58,0
150,1161,0.392,3842,392,0,-13,2015,-338,-0.00634765625,0.98388671875,-0.1650390625,-1,-1,7,-0.06103515625,-0.06103515625,0.42724609375,-5402,762,-2204,17942,381,-12756,98.558349609375,2.0928955078125,-70.07080078125,349,3.49,0
151,1162,0.392,3842,392,1,-39,1968,-477,-0.01904296875,0.9609375,-0.23291015625,6,4,-6,0.3662109375,0.244140625,-0.3662109375,-1513,576,5843,18840,239,-30263,103.4912109375,1.3128662109375,-166.2396240234375,356,3.56,0
152,1163,0.392,3842,392,2,67,1925,730,0.03271484375,0.93994140625,0.3564453125,-13,12,17,-0.79345703125,0.732421875,1.03759765625,1700,2097,-4025,12509,-328,3750,68.7139892578125,-1.8017578125,20.599365234375,358,3.58,0
153,1164,0.397,3847,397,0,-11,2014,-342,-0.00537109375,0.9833984375,-0.1669921875,-1,4,12,-0.06103515625,0.244140625,0.732421875,-5454,777,-2224,17942,381,-12756,98.558349609375,2.0928955078125,-70.07080078125,349,3.49,0
154,1165,0.399,3849,399,2,70,1924,727,0.0341796875,0.939453125,0.35498046875,-17,15,17,-1.03759765625,0.91552734375,1.03759765625,1693,2085,-4011,12509,-328,3750,68.7139892578125,-1.8017578125,20.599365234375,358,3.58,0
155,1166,0.404,3854,404,0,-14,2011,-341,-0.0068359375,0.98193359375,-0.16650390625,-5,9,13,-0.30517578125,0.54931640625,0.79345703125,-5448,778,-2249,17943,379,-12756,98.5638427734375,2.0819091796875,-70.07080078125,349,3.49,0
156,1167,0.405,3855,405,1,-41,1964,-499,-0.02001953125,0.958984375,-0.24365234375,21,-6,-6,1.28173828125,-0.3662109375,-0.3662109375,-1531,554,5844,18843,240,-30262,103.5076904296875,1.318359375,-166.234130859375,356,3.56,0
157,1168,0.406,3856,406,2,74,1922,722,0.0361328125,0.9384765625,0.3525390625,-28,23,17,-1.708984375,1.40380859375,1.03759765625,1684,2065,-4032,12509,-328,3750,68.7139892578125,-1.8017578125,20.599365234375,358,3.58,0
158,1169,0.411,3861,411,0,-13,2007,-348,-0.00634765625,0.97998046875,-0.169921875,-3,13,16,-0.18310546875,0.79345703125,0.9765625,-5429,780,-2252,17943,379,-12755,98.5638427734375,2.0819091796875,-70.0653076171875,349,3.49,0
159,1170,0.412,3862,412,1,-44,1965,-505,-0.021484375,0.95947265625,-0.24658203125,25,-7,-9,1.52587890625,-0.42724609375,-0.54931640625,-1546,531,5848,18845,240,-30262,103.5186767578125,1.318359375,-166.234130859375,356,3.56,0
160,1171,0.413,3863,413,2,74,1919,721,0.0361328125,0.93701171875,0.35205078125,-30,27,16,-1.8310546875,1.64794921875,0.9765625,1678,2056,-4020,12509,-328,3749,68.7139892578125,-1.8017578125,20.5938720703125,358,3.58,0
161,1172,0.418,3868,418,0,-11,2005,-350,-0.00537109375,0.97900390625,-0.1708984375,-2,14,17,-0.1220703125,0.8544921875,1.03759765625,-5456,774,-2284,17943,379,-12755,98.5638427734375,2.0819091796875,-70.0653076171875,349,3.49,0
162,1173,0.419,3869,419,1,-40,1967,-514,-0.01953125,0.96044921875,-0.2509765625,30,-5,-11,1.8310546875,-0.30517578125,-0.67138671875,-1549,524,5819,18848,241,-30261,103.53515625,1.3238525390625,-166.2286376953125,356,3.56,0
163,1174,0.42,3870,420,2,73,1916,720,0.03564453125,0.935546875,0.3515625,-32,31,16,-1.953125,1.89208984375,0.9765625,1682,2057,-4033,12509,-328,3749,68.7139892578125,-1.8017578125,20.5938720703125,358,3.58,0
164,1175,0.425,3875,425,0,-15,2002,-350,-0.00732421875,0.9775390625,-0.1708984375,1,14,18,0.06103515625,0.8544921875,1.0986328125,-5453,808,-2245,17943,377,-12755,98.5638427734375,2.0709228515625,-70.0653076171875,349,3.49,0
165,1176,0.426,3876,426,1,-36,1965,-512,-0.017578125,0.95947265625,-0.25,29,-6,-8,1.77001953125,-0.3662109375,-0.48828125,-1545,517,5838,18849,241,-30261,103.5406494140625,1.3238525390625,-166.2286376953125,356,3.56,0
166,1177,0.427,3877,427,2,69,1912,719,0.03369140625,0.93359375,0.35107421875,-33,33,15,-2.01416015625,2.01416015625,0.91552734375,1685,2032,-3996,12509,-328,3749,68.7139892578125,-1.8017578125,20.5938720703125,358,3.58,0
167,1178,0.432,3882,432,0,-22,2005,-353,-0.0107421875,0.97900390625,-0.17236328125,9,11,23,0.54931640625,0.67138671875,1.40380859375,-5457,806,-2256,17944,377,-12754,98.5693359375,2.0709228515625,-70.059814453125,349,3.49,0
168,1179,0.433,3883,433,1,-34,1977,-498,-0.0166015625,0.96533203125,-0.2431640625,27,0,-12,1.64794921875,0.0,-0.732421875,-1524,506,5868,18852,242,-30260,103.55712890625,1.329345703125,-166.22314453125,356,3.56,0
169,1180,0.434,3884,434,2,66,1909,720,0.0322265625,0.93212890625,0.3515625,-32,36,15,-1.953125,2.197265625,0.91552734375,1696,2028,-3991,12509,-328,3749,68.7139892578125,-1.8017578125,20.5938720703125,358,3.58,0
170,1181,0.439,3889,439,0,-31,2003,-353,-0.01513671875,0.97802734375,-0.17236328125,11,12,23,0.67138671875,0.732421875,1.40380859375,-5470,797,-2257,17944,377,-12754,98.5693359375,2.0709228515625,-70.059814453125,349,3.49,0
171,1182,0.44,3890,440,1,-35,1981,-497,-0.01708984375,0.96728515625,-0.24267578125,27,10,-10,1.64794921875,0.6103515625,-0.6103515625,-1531,490,5855,18854,243,-30259,103.568115234375,1.3348388671875,-166.2176513671875,355,3.55,0
172,1183,0.441,3891,441,2,59,1905,724,0.02880859375,0.93017578125,0.353515625,-30,31,15,-1.8310546875,1.89208984375,0.91552734375,1724,2017,-3986,12509,-328,3749,68.7139892578125,-1.8017578125,20.5938720703125,358,3.58,0
173,1184,0.446,3896,446,0,-31,2003,-353,-0.01513671875,0.97802734375,-0.17236328125,11,12,23,0.67138671875,0.732421875,1.40380859375,-5470,797,-2257,17944,377,-12754,98.5693359375,2.0709228515625,-70.059814453125,349,3.49,0
174,1185,0.447,3897,447,1,-35,1978,-491,-0.01708984375,0.9658203125,-0.23974609375,26,16,-11,1.5869140625,0.9765625,-0.67138671875,-1536,475,5843,18855,243,-30257,103.5736083984375,1.3348388671875,-166.2066650390625,355,3.55,0
175,1186,0.448,3898,448,2,57,1904,726,0.02783203125,0.9296875,0.3544921875,-28,28,15,-1.708984375,1.708984375,0.91552734375,1715,2028,-3960,12509,-328,3749,68.7139892578125,-1.8017578125,20.5938720703125,358,3.58,0
176,1187,0.456,3906,456,0,-56,2005,-351,-0.02734375,0.97900390625,-0.17138671875,20,8,25,1.220703125,0.48828125,1.52587890625,-5449,791,-2255,17944,376,-12753,98.5693359375,2.0654296875,-70.0543212890625,349,3.49,0
177,1188,0.456,3906,456,1,-42,1980,-488,-0.0205078125,0.966796875,-0.23828125,24,28,-6,1.46484375,1.708984375,-0.3662109375,-1484,499,5810,18858,242,-30253,103.590087890625,1.329345703125,-166.1846923828125,355,3.55,0
178,1189,0.456,3906,456,2,54,1902,728,0.0263671875,0.9287109375,0.35546875,-27,25,13,-1.64794921875,1.52587890625,0.79345703125,1729,2022,-3973,12509,-328,3750,68.7139892578125,-1.8017578125,20.599365234375,358,3.58,0
179,1190,0.46,3910,460,0,-63,2011,-348,-0.03076171875,0.98193359375,-0.169921875,22,3,23,1.3427734375,0.18310546875,1.40380859375,-5439,784,-2256,17944,376,-12753,98.5693359375,2.0654296875,-70.0543212890625,349,3.49,0
180,1191,0.461,3911,461,1,-45,1981,-483,-0.02197265625,0.96728515625,-0.23583984375,25,30,-3,1.52587890625,1.8310546875,-0.18310546875,-1470,507,5808,18859,242,-30251,103.5955810546875,1.329345703125,-166.1737060546875,355,3.55,0
181,1192,0.462,3912,462,2,50,1902,731,0.0244140625,0.9287109375,0.35693359375,-29,21,12,-1.77001953125,1.28173828125,0.732421875,1723,2033,-3998,12508,-328,3750,68.70849609375,-1.8017578125,20.599365234375,358,3.58,0
182,1193,0.467,3917,467,0,-71,2013,-343,-0.03466796875,0.98291015625,-0.16748046875,20,0,24,1.220703125,0.0,1.46484375,-5446,791,-2235,17945,374,-12753,98.5748291015625,2.054443359375,-70.0543212890625,348,3.48,0
183,1194,0.468,3918,468,1,-49,1991,-474,-0.02392578125,0.97216796875,-0.2314453125,20,32,-4,1.220703125,1.953125,-0.244140625,-1453,530,5824,18862,241,-30246,103.612060546875,1.3238525390625,-166.146240234375,355,3.55,0
184,1195,0.469,3919,469,2,49,1901,733,0.02392578125,0.92822265625,0.35791015625,-31,18,10,-1.89208984375,1.0986328125,0.6103515625,1741,2038,-4007,12508,-328,3750,68.70849609375,-1.8017578125,20.599365234375,358,3.58,0
185,1196,0.474,3924,474,0,-76,2015,-342,-0.037109375,0.98388671875,-0.1669921875,18,0,22,1.0986328125,0.0,1.3427734375,-5442,781,-2225,17945,374,-12752,98.5748291015625,2.054443359375,-70.048828125,348,3.48,0
186,1197,0.475,3925,475,1,-53,1996,-475,-0.02587890625,0.974609375,-0.23193359375,16,30,-4,0.9765625,1.8310546875,-0.244140625,-1467,558,5882,18862,241,-30244,103.612060546875,1.3238525390625,-166.13525390625,355,3.55,0
187,1198,0.476,3926,476,2,47,1898,737,0.02294921875,0.9267578125,0.35986328125,-27,10,7,-1.64794921875,0.6103515625,0.42724609375,1710,2039,-3969,12508,-328,3750,68.70849609375,-1.8017578125,20.599365234375,358,3.58,0
188,1199,0.481,3931,481,0,-76,2015,-342,-0.037109375,0.98388671875,-0.1669921875,18,0,22,1.0986328125,0.0,1.3427734375,-5442,781,-2225,17945,374,-12752,98.5748291015625,2.054443359375,-70.048828125,348,3.48,0
189,1200,0.482,3932,482,1,-59,1997,-473,-0.02880859375,0.97509765625,-0.23095703125,16,27,-3,0.9765625,1.64794921875,-0.18310546875,-1439,543,5893,18863,240,-30242,103.6175537109375,1.318359375,-166.124267578125,355,3.55,0
190,1201,0.483,3933,483,2,48,1897,739,0.0234375,0.92626953125,0.36083984375,-25,6,6,-1.52587890625,0.3662109375,0.3662109375,1722,2064,-4002,12508,-327,3750,68.70849609375,-1.7962646484375,20.599365234375,358,3.58,0
191,1202,0.488,3938,488,0,-84,2014,-337,-0.041015625,0.9833984375,-0.16455078125,9,-12,20,0.54931640625,-0.732421875,1.220703125,-5418,774,-2222,17946,374,-12752,98.580322265625,2.054443359375,-70.048828125,348,3.48,0
192,1203,0.499,3949,499,1,-65,1991,-468,-0.03173828125,0.97216796875,-0.228515625,9,19,5,0.54931640625,1.15966796875,0.30517578125,-1474,574,5908,18864,239,-30239,103.623046875,1.3128662109375,-166.1077880859375,355,3.55,0
193,1204,0.499,3949,499,2,49,1893,739,0.02392578125,0.92431640625,0.36083984375,-20,-4,3,-1.220703125,-0.244140625,0.18310546875,1712,2039,-4010,12508,-327,3750,68.70849609375,-1.7962646484375,20.599365234375,358,3.58,0
194,1205,0.502,3952,502,0,-83,2012,-327,-0.04052734375,0.982421875,-0.15966796875,1,-31,18,0.06103515625,-1.89208984375,1.0986328125,-5452,825,-2138,17947,374,-12752,98.5858154296875,2.054443359375,-70.048828125,348,3.48,0
195,1206,0.503,3953,503,1,-84,1977,-471,-0.041015625,0.96533203125,-0.22998046875,9,-4,11,0.54931640625,-0.244140625,0.67138671875,-1471,525,5914,18868,236,-30238,103.64501953125,1.29638671875,-166.102294921875,355,3.55,0
196,1207,0.504,3954,504,2,50,1893,739,0.0244140625,0.92431640625,0.36083984375,-18,-4,2,-1.0986328125,-0.244140625,0.1220703125,1721,2043,-4006,12507,-327,3750,68.7030029296875,-1.7962646484375,20.599365234375,358,3.58,0
197,1208,0.509,3959,509,0,-79,2007,-323,-0.03857421875,0.97998046875,-0.15771484375,0,-32,18,0.0,-1.953125,1.0986328125,-5450,834,-2146,17947,374,-12752,98.5858154296875,2.054443359375,-70.048828125,348,3.48,0
198,1209,0.51,3960,510,1,-84,1977,-475,-0.041015625,0.96533203125,-0.23193359375,10,-15,10,0.6103515625,-0.91552734375,0.6103515625,-1484,541,5905,18868,236,-30238,103.64501953125,1.29638671875,-166.102294921875,355,3.55,0
199,1210,0.511,3961,511,2,51,1894,739,0.02490234375,0.9248046875,0.36083984375,-17,-8,-1,-1.03759765625,-0.48828125,-0.06103515625,1712,2044,-4064,12507,-327,3750,68.7030029296875,-1.7962646484375,20.599365234375,358,3.58,0
200,1211,0.516,3966,516,0,-79,2007,-323,-0.03857421875,0.97998046875,-0.15771484375,0,-32,18,0.0,-1.953125,1.0986328125,-5450,834,-2146,17947,374,-12752,98.5858154296875,2.054443359375,-70.048828125,348,3.48,0
201,1212,0.517,3967,517,1,-85,1975,-478,-0.04150390625,0.96435546875,-0.2333984375,9,-21,13,0.54931640625,-1.28173828125,0.79345703125,-1478,502,5905,18868,236,-30238,103.64501953125,1.29638671875,-166.102294921875,355,3.55,0
202,1213,0.518,3968,518,2,51,1896,740,0.02490234375,0.92578125,0.361328125,-19,-9,-1,-1.15966796875,-0.54931640625,-0.06103515625,1721,2068,-4073,12507,-327,3750,68.7030029296875,-1.7962646484375,20.599365234375,358,3.58,0
203,1214,0.523,3973,523,0,-74,2013,-333,-0.0361328125,0.98291015625,-0.16259765625,-2,-31,24,-0.1220703125,-1.89208984375,1.46484375,-5449,864,-2212,17947,374,-12751,98.5858154296875,2.054443359375,-70.0433349609375,347,3.47,0
204,1215,0.524,3974,524,1,-82,1974,-485,-0.0400390625,0.9638671875,-0.23681640625,13,-42,7,0.79345703125,-2.5634765625,0.42724609375,-1457,514,5914,18869,236,-30242,103.6505126953125,1.29638671875,-166.124267578125,355,3.55,0
205,1216,0.525,3975,525,2,51,1898,741,0.02490234375,0.9267578125,0.36181640625,-19,-11,-2,-1.15966796875,-0.67138671875,-0.1220703125,1730,2075,-4071,12507,-327,3750,68.7030029296875,-1.7962646484375,20.599365234375,358,3.58,0
206,1217,0.53,3980,530,0,-69,2013,-338,-0.03369140625,0.98291015625,-0.1650390625,0,-30,21,0.0,-1.8310546875,1.28173828125,-5437,833,-2216,17947,374,-12751,98.5858154296875,2.054443359375,-70.0433349609375,347,3.47,0
207,1218,0.531,3981,531,1,-79,1974,-483,-0.03857421875,0.9638671875,-0.23583984375,13,-51,6,0.79345703125,-3.11279296875,0.3662109375,-1451,508,5889,18870,237,-30244,103.656005859375,1.3018798828125,-166.13525390625,355,3.55,0
208,1219,0.532,3982,532,2,51,1905,742,0.02490234375,0.93017578125,0.3623046875,-18,-18,-1,-1.0986328125,-1.0986328125,-0.06103515625,1731,2086,-4084,12507,-327,3750,68.7030029296875,-1.7962646484375,20.599365234375,358,3.58,0
209,1220,0.537,3987,537,0,-60,2022,-351,-0.029296875,0.9873046875,-0.17138671875,-4,-26,18,-0.244140625,-1.5869140625,1.0986328125,-5448,813,-2136,17947,374,-12751,98.5858154296875,2.054443359375,-70.0433349609375,347,3.47,0
210,1221,0.539,3989,539,2,53,1909,742,0.02587890625,0.93212890625,0.3623046875,-16,-24,-1,-0.9765625,-1.46484375,-0.06103515625,1731,2061,-4091,12507,-327,3750,68.7030029296875,-1.7962646484375,20.599365234375,358,3.58,0
211,1222,0.544,3994,544,0,-56,2023,-352,-0.02734375,0.98779296875,-0.171875,-6,-23,15,-0.3662109375,-1.40380859375,0.91552734375,-5426,808,-2125,17947,373,-12751,98.5858154296875,2.0489501953125,-70.0433349609375,347,3.47,0
212,1223,0.545,3995,545,1,-64,1979,-492,-0.03125,0.96630859375,-0.240234375,25,-58,1,1.52587890625,-3.5400390625,0.06103515625,-1465,538,5872,18873,238,-30252,103.6724853515625,1.307373046875,-166.17919921875,355,3.55,0
213,1224,0.546,3996,546,2,55,1912,741,0.02685546875,0.93359375,0.36181640625,-16,-27,-1,-0.9765625,-1.64794921875,-0.06103515625,1739,2064,-4055,12506,-326,3750,68.697509765625,-1.790771484375,20.599365234375,358,3.58,0
214,1225,0.551,4001,551,0,-53,2022,-358,-0.02587890625,0.9873046875,-0.1748046875,-8,-18,16,-0.48828125,-1.0986328125,0.9765625,-5433,853,-2097,17947,373,-12751,98.5858154296875,2.0489501953125,-70.0433349609375,347,3.47,0
215,1226,0.558,4008,558,1,-60,1980,-498,-0.029296875,0.966796875,-0.2431640625,22,-55,-1,1.3427734375,-3.35693359375,-0.06103515625,-1465,522,5828,18874,238,-30255,103.677978515625,1.307373046875,-166.1956787109375,355,3.55,0
216,1227,0.558,4008,558,2,64,1916,739,0.03125,0.935546875,0.36083984375,-18,-17,1,-1.0986328125,-1.03759765625,0.06103515625,1737,2072,-4129,12506,-326,3750,68.697509765625,-1.790771484375,20.599365234375,358,3.58,0
217,1228,0.558,4008,558,0,-34,2024,-367,-0.0166015625,0.98828125,-0.17919921875,-8,-14,11,-0.48828125,-0.8544921875,0.67138671875,-5449,840,-2135,17947,373,-12751,98.5858154296875,2.0489501953125,-70.0433349609375,348,3.48,0
218,1229,0.559,4009,559,1,-46,1982,-505,-0.0224609375,0.9677734375,-0.24658203125,23,-47,1,1.40380859375,-2.86865234375,0.06103515625,-1479,514,5834,18876,239,-30259,103.68896484375,1.3128662109375,-166.2176513671875,355,3.55,0
219,1230,0.56,4010,560,2,68,1917,738,0.033203125,0.93603515625,0.3603515625,-21,-12,0,-1.28173828125,-0.732421875,0.0,1712,2050,-4129,12506,-326,3750,68.697509765625,-1.790771484375,20.599365234375,357,3.57,0
220,1231,0.565,4015,565,0,-29,2021,-367,-0.01416015625,0.98681640625,-0.17919921875,-6,-12,12,-0.3662109375,-0.732421875,0.732421875,-5461,846,-2125,17948,373,-12751,98.59130859375,2.0489501953125,-70.0433349609375,348,3.48,0
221,1232,0.566,4016,566,1,-39,1985,-505,-0.01904296875,0.96923828125,-0.24658203125,21,-41,0,1.28173828125,-2.50244140625,0.0,-1465,524,5824,18878,240,-30261,103.699951171875,1.318359375,-166.2286376953125,355,3.55,0
222,1233,0.567,4017,567,2,72,1917,742,0.03515625,0.93603515625,0.3623046875,-21,-10,0,-1.28173828125,-0.6103515625,0.0,1698,2037,-4092,12505,-326,3751,68.6920166015625,-1.790771484375,20.6048583984375,357,3.57,0
223,1234,0.572,4022,572,0,-17,2016,-370,-0.00830078125,0.984375,-0.1806640625,-4,-17,12,-0.244140625,-1.03759765625,0.732421875,-5447,825,-2132,17948,373,-12751,98.59130859375,2.0489501953125,-70.0433349609375,349,3.49,0
224,1235,0.573,4023,573,1,-35,1988,-504,-0.01708984375,0.970703125,-0.24609375,24,-36,1,1.46484375,-2.197265625,0.06103515625,-1465,530,5833,18879,240,-30262,103.7054443359375,1.318359375,-166.234130859375,355,3.55,0
225,1236,0.579,4029,579,0,-13,2016,-372,-0.00634765625,0.984375,-0.181640625,-1,-16,14,-0.06103515625,-0.9765625,0.8544921875,-5450,814,-2178,17948,373,-12751,98.59130859375,2.0489501953125,-70.0433349609375,349,3.49,0
226,1237,0.58,4030,580,1,-23,1991,-501,-0.01123046875,0.97216796875,-0.24462890625,19,-21,5,1.15966796875,-1.28173828125,0.30517578125,-1471,529,5842,18881,240,-30263,103.7164306640625,1.318359375,-166.2396240234375,355,3.55,0
227,1238,0.586,4036,586,0,-12,2015,-368,-0.005859375,0.98388671875,-0.1796875,-1,-22,11,-0.06103515625,-1.3427734375,0.67138671875,-5463,805,-2175,17949,372,-12751,98.5968017578125,2.04345703125,-70.0433349609375,349,3.49,0
228,1239,0.587,4037,587,1,-17,1991,-501,-0.00830078125,0.97216796875,-0.24462890625,18,-13,8,1.0986328125,-0.79345703125,0.48828125,-1482,533,5846,18882,239,-30264,103.721923828125,1.3128662109375,-166.2451171875,355,3.55,0
229,1240,0.588,4038,588,2,70,1914,750,0.0341796875,0.9345703125,0.3662109375,-6,-17,2,-0.3662109375,-1.03759765625,0.1220703125,1678,2026,-4090,12505,-326,3750,68.6920166015625,-1.790771484375,20.599365234375,356,3.56,0
230,1241,0.593,4043,593,0,-7,2011,-364,-0.00341796875,0.98193359375,-0.177734375,1,-29,13,0.06103515625,-1.77001953125,0.79345703125,-5463,825,-2207,17949,372,-12751,98.5968017578125,2.04345703125,-70.0433349609375,350,3.5,0
231,1242,0.594,4044,594,1,-12,1991,-499,-0.005859375,0.97216796875,-0.24365234375,12,-4,8,0.732421875,-0.244140625,0.48828125,-1503,555,5851,18883,238,-30263,103.7274169921875,1.307373046875,-166.2396240234375,355,3.55,0
232,1243,0.595,4045,595,2,69,1912,750,0.03369140625,0.93359375,0.3662109375,-5,-14,3,-0.30517578125,-0.8544921875,0.18310546875,1674,2012,-4055,12505,-326,3750,68.6920166015625,-1.790771484375,20.599365234375,356,3.56,0
233,1244,0.6,4050,600,0,-4,2012,-362,-0.001953125,0.982421875,-0.1767578125,0,-31,12,0.0,-1.89208984375,0.732421875,-5484,825,-2160,17949,372,-12751,98.5968017578125,2.04345703125,-70.0433349609375,350,3.5,0
234,1245,0.601,4051,601,1,-8,1985,-492,-0.00390625,0.96923828125,-0.240234375,6,-2,12,0.3662109375,-0.1220703125,0.732421875,-1495,542,5857,18884,237,-30263,103.73291015625,1.3018798828125,-166.2396240234375,355,3.55,0
235,1246,0.602,4052,602,2,64,1907,752,0.03125,0.93115234375,0.3671875,-5,-6,5,-0.30517578125,-0.3662109375,0.30517578125,1670,2073,-4026,12504,-326,3750,68.6865234375,-1.790771484375,20.599365234375,356,3.56,0
236,1247,0.607,4057,607,0,-4,2012,-362,-0.001953125,0.982421875,-0.1767578125,0,-31,12,0.0,-1.89208984375,0.732421875,-5484,825,-2160,17949,372,-12751,98.5968017578125,2.04345703125,-70.0433349609375,350,3.5,0
237,1248,0.608,4058,608,1,-13,1983,-494,-0.00634765625,0.96826171875,-0.2412109375,10,0,14,0.6103515625,0.0,0.8544921875,-1514,540,5863,18884,236,-30262,103.73291015625,1.29638671875,-166.234130859375,355,3.55,0
238,1249,0.609,4059,609,2,62,1905,754,0.0302734375,0.93017578125,0.3681640625,-6,-5,4,-0.3662109375,-0.30517578125,0.244140625,1663,2093,-4017,12504,-326,3750,68.6865234375,-1.790771484375,20.599365234375,356,3.56,0
239,1250,0.614,4064,614,0,-5,2007,-352,-0.00244140625,0.97998046875,-0.171875,5,-31,14,0.30517578125,-1.89208984375,0.8544921875,-5472,807,-2151,17950,370,-12751,98.602294921875,2.032470703125,-70.0433349609375,350,3.5,0
240,1251,0.615,4065,615,1,-17,1984,-495,-0.00830078125,0.96875,-0.24169921875,2,-1,16,0.1220703125,-0.06103515625,0.9765625,-1514,529,5876,18884,235,-30262,103.73291015625,1.2908935546875,-166.234130859375,355,3.55,0
241,1252,0.623,4073,623,2,59,1902,757,0.02880859375,0.9287109375,0.36962890625,-5,-7,4,-0.30517578125,-0.42724609375,0.244140625,1666,2076,-4019,12504,-326,3749,68.6865234375,-1.790771484375,20.5938720703125,356,3.56,0
242,1253,0.623,4073,623,0,-6,2012,-350,-0.0029296875,0.982421875,-0.1708984375,3,-30,11,0.18310546875,-1.8310546875,0.67138671875,-5462,812,-2139,17950,370,-12751,98.602294921875,2.032470703125,-70.0433349609375,350,3.5,0
243,1254,0.623,4073,623,1,-19,1982,-497,-0.00927734375,0.9677734375,-0.24267578125,0,-2,14,0.0,-0.1220703125,0.8544921875,-1504,538,5880,18884,234,-30262,103.73291015625,1.285400390625,-166.234130859375,355,3.55,0
244,1255,0.623,4073,623,2,53,1897,761,0.02587890625,0.92626953125,0.37158203125,-2,-15,5,-0.1220703125,-0.91552734375,0.30517578125,1690,2085,-4011,12503,-326,3750,68.6810302734375,-1.790771484375,20.599365234375,356,3.56,0
245,1256,0.628,4078,628,0,-7,2012,-346,-0.00341796875,0.982421875,-0.1689453125,4,-18,10,0.244140625,-1.0986328125,0.6103515625,-5430,826,-2187,17951,369,-12751,98.6077880859375,2.0269775390625,-70.0433349609375,350,3.5,0
246,1257,0.629,4079,629,1,-28,1977,-501,-0.013671875,0.96533203125,-0.24462890625,4,-8,14,0.244140625,-0.48828125,0.8544921875,-1512,580,5903,18884,232,-30262,103.73291015625,1.2744140625,-166.234130859375,355,3.55,0
247,1258,0.63,4080,630,2,52,1895,762,0.025390625,0.92529296875,0.3720703125,1,-18,5,0.06103515625,-1.0986328125,0.30517578125,1694,2082,-4025,12503,-326,3750,68.6810302734375,-1.790771484375,20.599365234375,356,3.56,0
248,1259,0.635,4085,635,0,-13,2015,-348,-0.00634765625,0.98388671875,-0.169921875,-3,-12,13,-0.18310546875,-0.732421875,0.79345703125,-5416,832,-2208,17951,369,-12750,98.6077880859375,2.0269775390625,-70.037841796875,350,3.5,0
249,1260,0.636,4086,636,1,-35,1976,-502,-0.01708984375,0.96484375,-0.2451171875,5,-13,14,0.30517578125,-0.79345703125,0.8544921875,-1531,572,5926,18885,232,-30263,103.7384033203125,1.2744140625,-166.2396240234375,355,3.55,0
250,1261,0.637,4087,637,2,53,1891,762,0.02587890625,0.92333984375,0.3720703125,0,-16,4,0.0,-0.9765625,0.244140625,1699,2090,-4063,12503,-326,3749,68.6810302734375,-1.790771484375,20.5938720703125,356,3.56,0
251,1262,0.642,4092,642,0,-13,2015,-348,-0.00634765625,0.98388671875,-0.169921875,-3,-12,13,-0.18310546875,-0.732421875,0.79345703125,-5416,832,-2208,17951,369,-12750,98.6077880859375,2.0269775390625,-70.037841796875,350,3.5,0
252,1263,0.643,4093,643,1,-39,1981,-509,-0.01904296875,0.96728515625,-0.24853515625,8,-14,9,0.48828125,-0.8544921875,0.54931640625,-1526,594,5940,18885,231,-30263,103.7384033203125,1.2689208984375,-166.2396240234375,355,3.55,0
253,1264,0.644,4094,644,2,54,1890,761,0.0263671875,0.9228515625,0.37158203125,-2,-14,4,-0.1220703125,-0.8544921875,0.244140625,1702,2100,-4087,12502,-326,3749,68.675537109375,-1.790771484375,20.5938720703125,356,3.56,0
254,1265,0.649,4099,649,0,-18,2010,-353,-0.0087890625,0.9814453125,-0.17236328125,-19,7,13,-1.15966796875,0.42724609375,0.79345703125,-5400,834,-2192,17952,367,-12750,98.61328125,2.0159912109375,-70.037841796875,351,3.51,0
255,1266,0.651,4101,651,2,55,1891,761,0.02685546875,0.92333984375,0.37158203125,-3,-13,4,-0.18310546875,-0.79345703125,0.244140625,1704,2109,-4108,12502,-326,3749,68.675537109375,-1.790771484375,20.5938720703125,356,3.56,0
256,1267,0.662,4112,662,0,-21,2007,-356,-0.01025390625,0.97998046875,-0.173828125,-21,8,12,-1.28173828125,0.48828125,0.732421875,-5395,813,-2217,17952,367,-12750,98.61328125,2.0159912109375,-70.037841796875,350,3.5,0
257,1268,0.662,4112,662,1,-49,1973,-507,-0.02392578125,0.96337890625,-0.24755859375,2,-16,11,0.1220703125,-0.9765625,0.67138671875,-1521,570,5904,18885,230,-30264,103.7384033203125,1.263427734375,-166.2451171875,356,3.56,0
258,1269,0.662,4112,662,2,52,1895,759,0.025390625,0.92529296875,0.37060546875,-8,-14,6,-0.48828125,-0.8544921875,0.3662109375,1705,2127,-4108,12502,-326,3749,68.675537109375,-1.790771484375,20.5938720703125,356,3.56,0
259,1270,0.663,4113,663,0,-22,2003,-372,-0.0107421875,0.97802734375,-0.181640625,-22,15,10,-1.3427734375,0.91552734375,0.6103515625,-5408,832,-2218,17953,365,-12750,98.6187744140625,2.0050048828125,-70.037841796875,350,3.5,0
260,1271,0.664,4114,664,1,-54,1963,-509,-0.0263671875,0.95849609375,-0.24853515625,4,-2,4,0.244140625,-0.1220703125,0.244140625,-1505,556,5894,18886,229,-30264,103.743896484375,1.2579345703125,-166.2451171875,356,3.56,0
261,1272,0.665,4115,665,2,50,1898,758,0.0244140625,0.9267578125,0.3701171875,-7,-17,7,-0.42724609375,-1.03759765625,0.42724609375,1715,2125,-4121,12501,-325,3749,68.6700439453125,-1.7852783203125,20.5938720703125,356,3.56,0
262,1273,0.67,4120,670,0,-19,2001,-378,-0.00927734375,0.97705078125,-0.1845703125,-19,13,11,-1.15966796875,0.79345703125,0.67138671875,-5398,827,-2193,17953,365,-12750,98.6187744140625,2.0050048828125,-70.037841796875,350,3.5,0
263,1274,0.671,4121,671,1,-56,1964,-515,-0.02734375,0.958984375,-0.25146484375,3,1,3,0.18310546875,0.06103515625,0.18310546875,-1525,554,5909,18886,229,-30263,103.743896484375,1.2579345703125,-166.2396240234375,356,3.56,0
264,1275,0.672,4122,672,2,49,1901,756,0.02392578125,0.92822265625,0.369140625,-8,-19,9,-0.48828125,-1.15966796875,0.54931640625,1735,2128,-4085,12501,-325,3749,68.6700439453125,-1.7852783203125,20.5938720703125,356,3.56,0
265,1276,0.677,4127,677,0,-18,2000,-380,-0.0087890625,0.9765625,-0.185546875,-18,14,9,-1.0986328125,0.8544921875,0.54931640625,-5390,823,-2200,17953,365,-12749,98.6187744140625,2.0050048828125,-70.0323486328125,350,3.5,0
266,1277,0.678,4128,678,1,-58,1959,-513,-0.0283203125,0.95654296875,-0.25048828125,5,0,3,0.30517578125,0.0,0.18310546875,-1514,577,5898,18886,228,-30263,103.743896484375,1.25244140625,-166.2396240234375,356,3.56,0
267,1278,0.679,4129,679,2,52,1906,753,0.025390625,0.9306640625,0.36767578125,-6,-12,11,-0.3662109375,-0.732421875,0.67138671875,1726,2147,-4062,12501,-325,3749,68.6700439453125,-1.7852783203125,20.5938720703125,356,3.56,0
268,1279,0.684,4134,684,0,-19,2000,-392,-0.00927734375,0.9765625,-0.19140625,-9,14,14,-0.54931640625,0.8544921875,0.8544921875,-5413,816,-2200,17955,364,-12750,98.6297607421875,1.99951171875,-70.037841796875,349,3.49,0
269,1280,0.685,4135,685,1,-61,1964,-516,-0.02978515625,0.958984375,-0.251953125,10,6,-2,0.6103515625,0.3662109375,-0.1220703125,-1491,562,5848,18888,228,-30261,103.7548828125,1.25244140625,-166.2286376953125,356,3.56,0
270,1281,0.686,4136,686,2,54,1909,752,0.0263671875,0.93212890625,0.3671875,-8,-8,11,-0.48828125,-0.48828125,0.67138671875,1753,2138,-4017,12500,-325,3749,68.66455078125,-1.7852783203125,20.5938720703125,356,3.56,0
271,1282,0.691,4141,691,0,-21,2006,-401,-0.01025390625,0.9794921875,-0.19580078125,-4,10,11,-0.244140625,0.6103515625,0.67138671875,-5407,802,-2215,17955,364,-12750,98.6297607421875,1.99951171875,-70.037841796875,349,3.49,0
272,1283,0.692,4142,692,1,-55,1965,-517,-0.02685546875,0.95947265625,-0.25244140625,13,6,-1,0.79345703125,0.3662109375,-0.06103515625,-1513,546,5834,18888,228,-30260,103.7548828125,1.25244140625,-166.22314453125,356,3.56,0
273,1284,0.693,4143,693,2,58,1914,751,0.0283203125,0.9345703125,0.36669921875,-17,2,12,-1.03759765625,0.1220703125,0.732421875,1697,2173,-4058,12500,-325,3749,68.66455078125,-1.7852783203125,20.5938720703125,356,3.56,0
274,1285,0.698,4148,698,0,-14,2000,-401,-0.0068359375,0.9765625,-0.19580078125,1,-3,13,0.06103515625,-0.18310546875,0.79345703125,-5426,815,-2242,17955,364,-12749,98.6297607421875,1.99951171875,-70.0323486328125,349,3.49,0
275,1286,0.7,4150,700,2,58,1916,751,0.0283203125,0.935546875,0.36669921875,-17,4,12,-1.03759765625,0.244140625,0.732421875,1714,2181,-4034,12500,-325,3749,68.66455078125,-1.7852783203125,20.5938720703125,356,3.56,0
276,1287,0.705,4155,705,0,-16,2002,-401,-0.0078125,0.9775390625,-0.19580078125,3,-12,13,0.18310546875,-0.732421875,0.79345703125,-5437,812,-2248,17956,362,-12749,98.63525390625,1.988525390625,-70.0323486328125,349,3.49,0
277,1288,0.706,4156,706,1,-46,1973,-515,-0.0224609375,0.96337890625,-0.25146484375,14,10,-5,0.8544921875,0.6103515625,-0.30517578125,-1496,512,5887,18894,227,-30258,103.787841796875,1.2469482421875,-166.212158203125,356,3.56,0
278,1289,0.707,4157,707,2,58,1917,751,0.0283203125,0.93603515625,0.36669921875,-18,4,13,-1.0986328125,0.244140625,0.79345703125,1694,2170,-4055,12499,-325,3749,68.6590576171875,-1.7852783203125,20.5938720703125,356,3.56,0
279,1290,0.712,4162,712,0,-10,2003,-396,-0.0048828125,0.97802734375,-0.193359375,6,-18,10,0.3662109375,-1.0986328125,0.6103515625,-5415,816,-2196,17956,362,-12749,98.63525390625,1.988525390625,-70.0323486328125,349,3.49,0
280,1291,0.714,4164,714,2,56,1916,751,0.02734375,0.935546875,0.36669921875,-15,4,15,-0.91552734375,0.244140625,0.91552734375,1698,2177,-4010,12499,-325,3749,68.6590576171875,-1.7852783203125,20.5938720703125,356,3.56,0
281,1292,0.723,4173,723,0,-2,2012,-388,-0.0009765625,0.982421875,-0.189453125,11,-27,12,0.67138671875,-1.64794921875,0.732421875,-5418,820,-2195,17956,362,-12748,98.63525390625,1.988525390625,-70.02685546875,349,3.49,0
282,1293,0.723,4173,723,1,-33,1981,-511,-0.01611328125,0.96728515625,-0.24951171875,17,6,-6,1.03759765625,0.3662109375,-0.3662109375,-1472,560,5962,18894,227,-30258,103.787841796875,1.2469482421875,-166.212158203125,356,3.56,0
283,1294,0.723,4173,723,2,57,1916,753,0.02783203125,0.935546875,0.36767578125,-14,7,15,-0.8544921875,0.42724609375,0.91552734375,1708,2190,-4041,12499,-325,3749,68.6590576171875,-1.7852783203125,20.5938720703125,356,3.56,0
284,1295,0.726,4176,726,0,0,2015,-381,0.0,0.98388671875,-0.18603515625,9,-25,11,0.54931640625,-1.52587890625,0.67138671875,-5418,815,-2194,17958,360,-12749,98.646240234375,1.9775390625,-70.0323486328125,349,3.49,0
285,1296,0.728,4178,728,2,58,1918,754,0.0283203125,0.9365234375,0.3681640625,-18,17,13,-1.0986328125,1.03759765625,0.79345703125,1709,2216,-4013,12498,-324,3749,68.653564453125,-1.77978515625,20.5938720703125,357,3.57,0
286,1297,0.733,4183,733,0,0,2015,-381,0.0,0.98388671875,-0.18603515625,9,-25,11,0.54931640625,-1.52587890625,0.67138671875,-5418,815,-2194,17958,360,-12749,98.646240234375,1.9775390625,-70.0323486328125,349,3.49,0
287,1298,0.734,4184,734,1,-26,1982,-507,-0.0126953125,0.9677734375,-0.24755859375,12,3,-7,0.732421875,0.18310546875,-0.42724609375,-1420,570,5962,18895,227,-30258,103.7933349609375,1.2469482421875,-166.212158203125,356,3.56,0
288,1299,0.735,4185,735,2,58,1919,755,0.0283203125,0.93701171875,0.36865234375,-18,18,14,-1.0986328125,1.0986328125,0.8544921875,1708,2201,-4032,12498,-324,3749,68.653564453125,-1.77978515625,20.5938720703125,357,3.57,0
289,1300,0.74,4190,740,0,7,2023,-363,0.00341796875,0.98779296875,-0.17724609375,3,-18,11,0.18310546875,-1.0986328125,0.67138671875,-5417,842,-2181,17958,360,-12748,98.646240234375,1.9775390625,-70.02685546875,349,3.49,0
290,1301,0.741,4191,741,1,-17,1978,-503,-0.00830078125,0.9658203125,-0.24560546875,11,1,-5,0.67138671875,0.06103515625,-0.30517578125,-1403,562,5920,18895,227,-30258,103.7933349609375,1.2469482421875,-166.212158203125,356,3.56,0
291,1302,0.742,4192,742,2,58,1920,756,0.0283203125,0.9375,0.369140625,-18,17,14,-1.0986328125,1.03759765625,0.8544921875,1697,2186,-4044,12498,-324,3749,68.653564453125,-1.77978515625,20.5938720703125,357,3.57,0
292,1303,0.747,4197,747,0,9,2024,-358,0.00439453125,0.98828125,-0.1748046875,2,-16,11,0.1220703125,-0.9765625,0.67138671875,-5412,840,-2184,17960,358,-12748,98.6572265625,1.966552734375,-70.02685546875,349,3.49,0
293,1304,0.748,4198,748,1,-14,1979,-498,-0.0068359375,0.96630859375,-0.2431640625,15,-3,-5,0.91552734375,-0.18310546875,-0.30517578125,-1427,559,5920,18896,227,-30258,103.798828125,1.2469482421875,-166.212158203125,357,3.57,0
294,1305,0.749,4199,749,2,58,1920,757,0.0283203125,0.9375,0.36962890625,-16,18,13,-0.9765625,1.0986328125,0.79345703125,1685,2166,-4095,12497,-324,3749,68.6480712890625,-1.77978515625,20.5938720703125,357,3.57,0
295,1306,0.754,4204,754,0,12,2023,-349,0.005859375,0.98779296875,-0.17041015625,-3,-13,9,-0.18310546875,-0.79345703125,0.54931640625,-5431,816,-2213,17960,358,-12748,98.6572265625,1.966552734375,-70.02685546875,349,3.49,0
296,1307,0.755,4205,755,1,-16,1976,-497,-0.0078125,0.96484375,-0.24267578125,10,-8,-3,0.6103515625,-0.48828125,-0.18310546875,-1501,552,5876,18896,227,-30258,103.798828125,1.2469482421875,-166.212158203125,357,3.57,0
297,1308,0.756,4206,756,2,58,1918,756,0.0283203125,0.9365234375,0.369140625,-16,22,12,-0.9765625,1.3427734375,0.732421875,1680,2174,-4094,12497,-324,3748,68.6480712890625,-1.77978515625,20.58837890625,357,3.57,0
298,1309,0.761,4211,761,0,14,2020,-344,0.0068359375,0.986328125,-0.16796875,-6,-13,11,-0.3662109375,-0.79345703125,0.67138671875,-5442,825,-2187,17960,358,-12748,98.6572265625,1.966552734375,-70.02685546875,349,3.49,0
299,1310,0.762,4212,762,1,-19,1977,-500,-0.00927734375,0.96533203125,-0.244140625,9,-12,-4,0.54931640625,-0.732421875,-0.244140625,-1515,534,5862,18896,227,-30258,103.798828125,1.2469482421875,-166.212158203125,357,3.57,0
300,1311,0.763,4213,763,2,58,1913,754,0.0283203125,0.93408203125,0.3681640625,-20,27,10,-1.220703125,1.64794921875,0.6103515625,1673,2193,-4115,12496,-324,3748,68.642578125,-1.77978515625,20.58837890625,358,3.58,0
301,1312,0.769,4219,769,1,-22,1976,-498,-0.0107421875,0.96484375,-0.2431640625,9,-11,-4,0.54931640625,-0.67138671875,-0.244140625,-1498,530,5861,18896,226,-30258,103.798828125,1.241455078125,-166.212158203125,357,3.57,0
302,1313,0.77,4220,770,2,56,1909,754,0.02734375,0.93212890625,0.3681640625,-20,29,11,-1.220703125,1.77001953125,0.67138671875,1660,2169,-4083,12496,-324,3748,68.642578125,-1.77978515625,20.58837890625,358,3.58,0
303,1314,0.775,4225,775,0,5,2013,-341,0.00244140625,0.98291015625,-0.16650390625,-12,-8,6,-0.732421875,-0.48828125,0.3662109375,-5411,823,-2210,17961,356,-12747,98.6627197265625,1.95556640625,-70.0213623046875,350,3.5,0
304,1315,0.776,4226,776,1,-16,1967,-494,-0.0078125,0.96044921875,-0.2412109375,8,-5,-5,0.48828125,-0.30517578125,-0.30517578125,-1468,526,5866,18896,226,-30257,103.798828125,1.241455078125,-166.2066650390625,357,3.57,0
305,1316,0.777,4227,777,2,55,1906,755,0.02685546875,0.9306640625,0.36865234375,-17,28,11,-1.03759765625,1.708984375,0.67138671875,1650,2176,-4078,12496,-324,3748,68.642578125,-1.77978515625,20.58837890625,358,3.58,0
306,1317,0.786,4236,786,1,-20,1967,-495,-0.009765625,0.96044921875,-0.24169921875,9,-3,0,0.54931640625,-0.18310546875,0.0,-1468,533,5871,18896,226,-30257,103.798828125,1.241455078125,-166.2066650390625,357,3.57,0
307,1318,0.786,4236,786,2,54,1899,755,0.0263671875,0.92724609375,0.36865234375,-11,28,9,-0.67138671875,1.708984375,0.54931640625,1647,2136,-4028,12495,-324,3748,68.6370849609375,-1.77978515625,20.58837890625,358,3.58,0
308,1319,0.789,4239,789,0,-10,2006,-346,-0.0048828125,0.9794921875,-0.1689453125,-8,-6,12,-0.48828125,-0.3662109375,0.732421875,-5426,815,-2153,17962,354,-12748,98.668212890625,1.944580078125,-70.02685546875,350,3.5,0
309,1320,0.79,4240,790,1,-23,1972,-501,-0.01123046875,0.962890625,-0.24462890625,13,6,-5,0.79345703125,0.3662109375,-0.30517578125,-1442,552,5875,18897,225,-30257,103.8043212890625,1.2359619140625,-166.2066650390625,357,3.57,0
310,1321,0.791,4241,791,2,54,1897,755,0.0263671875,0.92626953125,0.36865234375,-10,27,9,-0.6103515625,1.64794921875,0.54931640625,1634,2143,-4022,12495,-324,3748,68.6370849609375,-1.77978515625,20.58837890625,358,3.58,0
311,1322,0.796,4246,796,0,-15,2004,-350,-0.00732421875,0.978515625,-0.1708984375,-10,-2,11,-0.6103515625,-0.1220703125,0.67138671875,-5431,796,-2134,17962,354,-12747,98.668212890625,1.944580078125,-70.0213623046875,350,3.5,0
312,1323,0.797,4247,797,1,-25,1970,-502,-0.01220703125,0.9619140625,-0.2451171875,14,10,-7,0.8544921875,0.6103515625,-0.42724609375,-1437,557,5879,18897,225,-30257,103.8043212890625,1.2359619140625,-166.2066650390625,357,3.57,0
313,1324,0.798,4248,798,2,54,1896,756,0.0263671875,0.92578125,0.369140625,-11,26,7,-0.67138671875,1.5869140625,0.42724609375,1646,2088,-4014,12495,-324,3747,68.6370849609375,-1.77978515625,20.5828857421875,359,3.59,0
314,1325,0.803,4253,803,0,-26,2003,-355,-0.0126953125,0.97802734375,-0.17333984375,-8,4,9,-0.48828125,0.244140625,0.54931640625,-5428,797,-2136,17962,354,-12747,98.668212890625,1.944580078125,-70.0213623046875,350,3.5,0
315,1326,0.804,4254,804,1,-30,1973,-501,-0.0146484375,0.96337890625,-0.24462890625,12,9,-5,0.732421875,0.54931640625,-0.30517578125,-1424,570,5915,18897,225,-30257,103.8043212890625,1.2359619140625,-166.2066650390625,357,3.57,0
316,1327,0.805,4255,805,2,53,1897,755,0.02587890625,0.92626953125,0.36865234375,-10,25,9,-0.6103515625,1.52587890625,0.54931640625,1645,2104,-3991,12494,-323,3747,68.631591796875,-1.7742919921875,20.5828857421875,359,3.59,0
317,1328,0.81,4260,810,0,-31,1998,-357,-0.01513671875,0.9755859375,-0.17431640625,-6,9,8,-0.3662109375,0.54931640625,0.48828125,-5456,792,-2125,17963,352,-12748,98.6737060546875,1.93359375,-70.02685546875,350,3.5,0
318,1329,0.811,4261,811,1,-37,1975,-502,-0.01806640625,0.96435546875,-0.2451171875,15,13,-6,0.91552734375,0.79345703125,-0.3662109375,-1449,579,5880,18897,225,-30257,103.8043212890625,1.2359619140625,-166.2066650390625,357,3.57,0
319,1330,0.812,4262,812,2,52,1898,753,0.025390625,0.9267578125,0.36767578125,-11,23,10,-0.67138671875,1.40380859375,0.6103515625,1638,2108,-4001,12494,-323,3747,68.631591796875,-1.7742919921875,20.5828857421875,359,3.59,0
320,1331,0.824,4274,824,0,-34,2000,-364,-0.0166015625,0.9765625,-0.177734375,0,11,10,0.0,0.67138671875,0.6103515625,-5464,801,-2122,17963,352,-12748,98.6737060546875,1.93359375,-70.02685546875,350,3.5,0
321,1332,0.825,4275,825,1,-44,1975,-499,-0.021484375,0.96435546875,-0.24365234375,9,19,-6,0.54931640625,1.15966796875,-0.3662109375,-1466,581,5846,18897,225,-30257,103.8043212890625,1.2359619140625,-166.2066650390625,357,3.57,0
322,1333,0.826,4276,826,2,50,1900,745,0.0244140625,0.927734375,0.36376953125,-12,23,13,-0.732421875,1.40380859375,0.79345703125,1663,2097,-4006,12493,-323,3747,68.6260986328125,-1.7742919921875,20.5828857421875,359,3.59,0
323,1334,0.831,4281,831,0,-32,2005,-366,-0.015625,0.97900390625,-0.1787109375,1,22,9,0.06103515625,1.3427734375,0.54931640625,-5428,785,-2160,17964,351,-12748,98.67919921875,1.9281005859375,-70.02685546875,351,3.51,0
324,1335,0.832,4282,832,1,-48,1970,-495,-0.0234375,0.9619140625,-0.24169921875,11,26,-10,0.67138671875,1.5869140625,-0.6103515625,-1502,602,5819,18898,225,-30257,103.809814453125,1.2359619140625,-166.2066650390625,357,3.57,0
325,1336,0.833,4283,833,2,52,1902,743,0.025390625,0.9287109375,0.36279296875,-16,26,13,-0.9765625,1.5869140625,0.79345703125,1654,2108,-3987,12493,-323,3747,68.6260986328125,-1.7742919921875,20.5828857421875,359,3.59,0
326,1337,0.838,4288,838,0,-31,2007,-371,-0.01513671875,0.97998046875,-0.18115234375,3,26,9,0.18310546875,1.5869140625,0.54931640625,-5430,778,-2128,17964,351,-12748,98.67919921875,1.9281005859375,-70.02685546875,351,3.51,0
327,1338,0.839,4289,839,1,-52,1972,-499,-0.025390625,0.962890625,-0.24365234375,13,24,-11,0.79345703125,1.46484375,-0.67138671875,-1511,603,5856,18898,225,-30256,103.809814453125,1.2359619140625,-166.201171875,357,3.57,0
328,1339,0.84,4290,840,2,55,1905,739,0.02685546875,0.93017578125,0.36083984375,-26,34,14,-1.5869140625,2.0751953125,0.8544921875,1661,2122,-4042,12493,-323,3746,68.6260986328125,-1.7742919921875,20.577392578125,359,3.59,0
329,1340,0.845,4295,845,0,-27,2008,-375,-0.01318359375,0.98046875,-0.18310546875,6,31,11,0.3662109375,1.89208984375,0.67138671875,-5412,802,-2102,17965,349,-12748,98.6846923828125,1.9171142578125,-70.02685546875,351,3.51,0
330,1341,0.846,4296,846,1,-56,1985,-501,-0.02734375,0.96923828125,-0.24462890625,20,16,-14,1.220703125,0.9765625,-0.8544921875,-1512,588,5879,18898,224,-30256,103.809814453125,1.23046875,-166.201171875,357,3.57,0
331,1342,0.847,4297,847,2,55,1906,739,0.02685546875,0.9306640625,0.36083984375,-30,37,16,-1.8310546875,2.25830078125,0.9765625,1661,2102,-4026,12492,-323,3746,68.62060546875,-1.7742919921875,20.577392578125,359,3.59,0
332,1343,0.852,4302,852,0,-27,2010,-369,-0.01318359375,0.9814453125,-0.18017578125,8,31,9,0.48828125,1.89208984375,0.54931640625,-5410,770,-2111,17965,349,-12748,98.6846923828125,1.9171142578125,-70.02685546875,351,3.51,0
333,1344,0.853,4303,853,1,-52,1990,-500,-0.025390625,0.9716796875,-0.244140625,18,16,-17,1.0986328125,0.9765625,-1.03759765625,-1497,588,5876,18898,224,-30256,103.809814453125,1.23046875,-166.201171875,357,3.57,0
334,1345,0.854,4304,854,2,57,1908,742,0.02783203125,0.931640625,0.3623046875,-38,44,16,-2.3193359375,2.685546875,0.9765625,1682,2095,-4065,12492,-323,3746,68.62060546875,-1.7742919921875,20.577392578125,359,3.59,0
335,1346,0.859,4309,859,0,-27,2010,-369,-0.01318359375,0.9814453125,-0.18017578125,8,31,9,0.48828125,1.89208984375,0.54931640625,-5410,770,-2111,17965,349,-12748,98.6846923828125,1.9171142578125,-70.02685546875,351,3.51,0
336,1347,0.86,4310,860,1,-52,1991,-498,-0.025390625,0.97216796875,-0.2431640625,18,15,-17,1.0986328125,0.91552734375,-1.03759765625,-1471,567,5855,18898,224,-30256,103.809814453125,1.23046875,-166.201171875,357,3.57,0
337,1348,0.861,4311,861,2,56,1907,745,0.02734375,0.93115234375,0.36376953125,-38,46,17,-2.3193359375,2.8076171875,1.03759765625,1700,2098,-4079,12492,-323,3746,68.62060546875,-1.7742919921875,20.577392578125,359,3.59,0
338,1349,0.866,4316,866,0,-21,2016,-370,-0.01025390625,0.984375,-0.1806640625,13,26,11,0.79345703125,1.5869140625,0.67138671875,-5423,816,-2098,17966,348,-12748,98.690185546875,1.91162109375,-70.02685546875,351,3.51,0
339,1350,0.867,4317,867,1,-48,1989,-492,-0.0234375,0.97119140625,-0.240234375,7,21,-17,0.42724609375,1.28173828125,-1.03759765625,-1457,558,5872,18898,224,-30255,103.809814453125,1.23046875,-166.1956787109375,357,3.57,0
340,1351,0.868,4318,868,2,55,1907,749,0.02685546875,0.93115234375,0.36572265625,-36,43,18,-2.197265625,2.62451171875,1.0986328125,1696,2118,-4071,12491,-322,3746,68.6151123046875,-1.768798828125,20.577392578125,359,3.59,0
341,1352,0.873,4323,873,0,-23,2016,-369,-0.01123046875,0.984375,-0.18017578125,8,19,9,0.48828125,1.15966796875,0.54931640625,-5428,822,-2091,17966,348,-12748,98.690185546875,1.91162109375,-70.02685546875,351,3.51,0
342,1353,0.874,4324,874,1,-44,1979,-498,-0.021484375,0.96630859375,-0.2431640625,5,27,-15,0.30517578125,1.64794921875,-0.91552734375,-1439,567,5861,18898,224,-30255,103.809814453125,1.23046875,-166.1956787109375,357,3.57,0
343,1354,0.875,4325,875,2,52,1907,752,0.025390625,0.93115234375,0.3671875,-28,34,20,-1.708984375,2.0751953125,1.220703125,1689,2089,-4071,12491,-322,3745,68.6151123046875,-1.768798828125,20.5718994140625,359,3.59,0
344,1355,0.883,4333,883,0,-27,2013,-360,-0.01318359375,0.98291015625,-0.17578125,3,9,4,0.18310546875,0.54931640625,0.244140625,-5419,846,-2097,17963,352,-12748,98.6737060546875,1.93359375,-70.02685546875,351,3.51,0
345,1356,0.883,4333,883,1,-43,1978,-498,-0.02099609375,0.9658203125,-0.2431640625,9,26,-15,0.54931640625,1.5869140625,-0.91552734375,-1423,581,5886,18898,224,-30255,103.809814453125,1.23046875,-166.1956787109375,357,3.57,0
346,1357,0.883,4333,883,2,51,1907,753,0.02490234375,0.93115234375,0.36767578125,-27,32,21,-1.64794921875,1.953125,1.28173828125,1705,2082,-4049,12491,-322,3745,68.6151123046875,-1.768798828125,20.5718994140625,359,3.59,0
347,1358,0.887,4337,887,0,-26,2013,-353,-0.0126953125,0.98291015625,-0.17236328125,5,3,4,0.30517578125,0.18310546875,0.244140625,-5417,838,-2099,17962,354,-12749,98.668212890625,1.944580078125,-70.0323486328125,351,3.51,0
348,1359,0.888,4338,888,1,-41,1982,-495,-0.02001953125,0.9677734375,-0.24169921875,10,23,-11,0.6103515625,1.40380859375,-0.67138671875,-1426,580,5883,18899,224,-30255,103.8153076171875,1.23046875,-166.1956787109375,357,3.57,0
349,1360,0.889,4339,889,2,50,1910,753,0.0244140625,0.9326171875,0.36767578125,-24,30,22,-1.46484375,1.8310546875,1.3427734375,1739,2100,-4025,12490,-322,3745,68.609619140625,-1.768798828125,20.5718994140625,358,3.58,0
350,1361,0.895,4345,895,1,-39,1981,-497,-0.01904296875,0.96728515625,-0.24267578125,9,18,-10,0.54931640625,1.0986328125,-0.6103515625,-1447,577,5866,18899,224,-30255,103.8153076171875,1.23046875,-166.1956787109375,357,3.57,0
351,1362,0.896,4346,896,2,47,1912,751,0.02294921875,0.93359375,0.36669921875,-23,28,23,-1.40380859375,1.708984375,1.40380859375,1730,2119,-4034,12490,-322,3746,68.609619140625,-1.768798828125,20.577392578125,358,3.58,0
352,1363,0.901,4351,901,0,-34,2013,-345,-0.0166015625,0.98291015625,-0.16845703125,0,-1,5,0.0,-0.06103515625,0.30517578125,-5417,865,-2064,17957,361,-12751,98.6407470703125,1.9830322265625,-70.0433349609375,351,3.51,0
353,1364,0.902,4352,902,1,-44,1976,-498,-0.021484375,0.96484375,-0.2431640625,5,4,-9,0.30517578125,0.244140625,-0.54931640625,-1414,565,5847,18899,225,-30254,103.8153076171875,1.2359619140625,-166.190185546875,357,3.57,0
354,1365,0.903,4353,903,2,44,1914,748,0.021484375,0.9345703125,0.365234375,-22,23,24,-1.3427734375,1.40380859375,1.46484375,1735,2113,-4040,12490,-322,3746,68.609619140625,-1.768798828125,20.577392578125,358,3.58,0
355,1366,0.908,4358,908,0,-34,2018,-343,-0.0166015625,0.9853515625,-0.16748046875,0,-3,5,0.0,-0.18310546875,0.30517578125,-5415,850,-2102,17955,363,-12752,98.6297607421875,1.9940185546875,-70.048828125,351,3.51,0
356,1367,0.909,4359,909,1,-45,1976,-499,-0.02197265625,0.96484375,-0.24365234375,7,2,-6,0.42724609375,0.1220703125,-0.3662109375,-1431,571,5842,18900,225,-30253,103.82080078125,1.2359619140625,-166.1846923828125,357,3.57,0
357,1368,0.91,4360,910,2,41,1914,748,0.02001953125,0.9345703125,0.365234375,-17,24,23,-1.03759765625,1.46484375,1.40380859375,1761,2090,-4075,12489,-322,3746,68.6041259765625,-1.768798828125,20.577392578125,358,3.58,0
358,1369,0.915,4365,915,0,-40,2020,-346,-0.01953125,0.986328125,-0.1689453125,-5,-6,7,-0.30517578125,-0.3662109375,0.42724609375,-5439,833,-2126,17951,367,-12755,98.6077880859375,2.0159912109375,-70.0653076171875,351,3.51,0
359,1370,0.916,4366,916,1,-55,1974,-501,-0.02685546875,0.9638671875,-0.24462890625,14,-5,-3,0.8544921875,-0.30517578125,-0.18310546875,-1446,564,5848,18901,225,-30253,103.8262939453125,1.2359619140625,-166.1846923828125,357,3.57,0
360,1371,0.917,4367,917,2,40,1913,747,0.01953125,0.93408203125,0.36474609375,-20,23,22,-1.220703125,1.40380859375,1.3427734375,1726,2078,-4059,12489,-322,3746,68.6041259765625,-1.768798828125,20.577392578125,358,3.58,0
361,1372,0.922,4372,922,0,-42,2016,-350,-0.0205078125,0.984375,-0.1708984375,-8,-11,9,-0.48828125,-0.67138671875,0.54931640625,-5447,829,-2128,17949,369,-12756,98.5968017578125,2.0269775390625,-70.07080078125,351,3.51,0
362,1373,0.923,4373,923,1,-56,1977,-497,-0.02734375,0.96533203125,-0.24267578125,17,-10,-5,1.03759765625,-0.6103515625,-0.30517578125,-1461,551,5843,18902,225,-30253,103.831787109375,1.2359619140625,-166.1846923828125,357,3.57,0
363,1374,0.924,4374,924,2,41,1909,750,0.02001953125,0.93212890625,0.3662109375,-25,20,18,-1.52587890625,1.220703125,1.0986328125,1692,2062,-4059,12489,-321,3746,68.6041259765625,-1.7633056640625,20.577392578125,358,3.58,0
364,1375,0.929,4379,929,0,-42,2016,-350,-0.0205078125,0.984375,-0.1708984375,-8,-11,9,-0.48828125,-0.67138671875,0.54931640625,-5447,829,-2128,17949,369,-12756,98.5968017578125,2.0269775390625,-70.07080078125,351,3.51,0
365,1376,0.93,4380,930,1,-53,1981,-503,-0.02587890625,0.96728515625,-0.24560546875,14,-16,-5,0.8544921875,-0.9765625,-0.30517578125,-1484,556,5854,18903,226,-30253,103.8372802734375,1.241455078125,-166.1846923828125,357,3.57,0
366,1377,0.931,4381,931,2,43,1905,751,0.02099609375,0.93017578125,0.36669921875,-25,18,17,-1.52587890625,1.0986328125,1.03759765625,1697,2061,-4036,12489,-321,3746,68.6041259765625,-1.7633056640625,20.577392578125,358,3.58,0
367,1378,0.937,4387,937,1,-48,1988,-507,-0.0234375,0.970703125,-0.24755859375,6,-15,-4,0.3662109375,-0.91552734375,-0.244140625,-1484,569,5842,18903,226,-30254,103.8372802734375,1.241455078125,-166.190185546875,357,3.57,0
368,1379,0.938,4388,938,2,45,1901,754,0.02197265625,0.92822265625,0.3681640625,-23,16,14,-1.40380859375,0.9765625,0.8544921875,1722,2074,-3963,12489,-321,3746,68.6041259765625,-1.7633056640625,20.577392578125,358,3.58,0
369,1380,0.947,4397,947,0,-53,2019,-346,-0.02587890625,0.98583984375,-0.1689453125,1,-20,11,0.06103515625,-1.220703125,0.67138671875,-5433,829,-2148,17942,377,-12764,98.558349609375,2.0709228515625,-70.11474609375,351,3.51,0
370,1381,0.947,4397,947,1,-45,1985,-507,-0.02197265625,0.96923828125,-0.24755859375,-2,-9,-4,-0.1220703125,-0.54931640625,-0.244140625,-1495,589,5838,18903,227,-30254,103.8372802734375,1.2469482421875,-166.190185546875,357,3.57,0
371,1382,0.947,4397,947,2,49,1894,758,0.02392578125,0.9248046875,0.3701171875,-18,9,8,-1.0986328125,0.54931640625,0.48828125,1726,2113,-3980,12488,-321,3746,68.5986328125,-1.7633056640625,20.577392578125,358,3.58,0
372,1383,0.95,4400,950,0,-57,2017,-349,-0.02783203125,0.98486328125,-0.17041015625,-4,-23,10,-0.244140625,-1.40380859375,0.6103515625,-5461,805,-2187,17938,382,-12768,98.536376953125,2.098388671875,-70.13671875,351,3.51,0
373,1384,0.951,4401,951,1,-42,1988,-503,-0.0205078125,0.970703125,-0.24560546875,0,-5,-4,0.0,-0.30517578125,-0.244140625,-1489,590,5869,18903,227,-30254,103.8372802734375,1.2469482421875,-166.190185546875,357,3.57,0
374,1385,0.952,4402,952,2,50,1892,760,0.0244140625,0.923828125,0.37109375,-17,3,6,-1.03759765625,0.18310546875,0.3662109375,1715,2116,-3991,12488,-321,3746,68.5986328125,-1.7633056640625,20.577392578125,358,3.58,0
375,1386,0.958,4408,958,1,-46,1987,-513,-0.0224609375,0.97021484375,-0.25048828125,3,-7,-3,0.18310546875,-0.42724609375,-0.18310546875,-1493,595,5896,18903,227,-30253,103.8372802734375,1.2469482421875,-166.1846923828125,356,3.56,0
376,1387,0.959,4409,959,2,49,1892,761,0.02392578125,0.923828125,0.37158203125,-16,-1,5,-0.9765625,-0.06103515625,0.30517578125,1704,2110,-3986,12488,-321,3746,68.5986328125,-1.7633056640625,20.577392578125,358,3.58,0
377,1388,0.964,4414,964,0,-58,2019,-349,-0.0283203125,0.98583984375,-0.17041015625,-3,-28,15,-0.18310546875,-1.708984375,0.91552734375,-5447,805,-2157,17934,386,-12773,98.514404296875,2.120361328125,-70.1641845703125,351,3.51,0
378,1389,0.965,4415,965,1,-48,1988,-517,-0.0234375,0.970703125,-0.25244140625,3,-9,1,0.18310546875,-0.54931640625,0.06103515625,-1471,579,5915,18903,226,-30253,103.8372802734375,1.241455078125,-166.1846923828125,356,3.56,0
379,1390,0.966,4416,966,2,48,1895,760,0.0234375,0.92529296875,0.37109375,-18,-6,2,-1.0986328125,-0.3662109375,0.1220703125,1717,2066,-4000,12487,-320,3746,68.5931396484375,-1.7578125,20.577392578125,358,3.58,0
380,1391,0.971,4421,971,0,-59,2021,-348,-0.02880859375,0.98681640625,-0.169921875,-2,-26,14,-0.1220703125,-1.5869140625,0.8544921875,-5443,847,-2162,17930,390,-12777,98.492431640625,2.142333984375,-70.1861572265625,351,3.51,0
381,1392,0.972,4422,972,1,-52,1987,-511,-0.025390625,0.97021484375,-0.24951171875,-3,-10,6,-0.18310546875,-0.6103515625,0.3662109375,-1487,581,5862,18903,226,-30254,103.8372802734375,1.241455078125,-166.190185546875,356,3.56,0
382,1393,0.973,4423,973,2,47,1897,759,0.02294921875,0.92626953125,0.37060546875,-19,-6,1,-1.15966796875,-0.3662109375,0.06103515625,1734,2052,-3974,12487,-320,3746,68.5931396484375,-1.7578125,20.577392578125,358,3.58,0
383,1394,0.978,4428,978,0,-57,2020,-350,-0.02783203125,0.986328125,-0.1708984375,-1,-25,12,-0.06103515625,-1.52587890625,0.732421875,-5447,832,-2196,17928,392,-12780,98.4814453125,2.1533203125,-70.20263671875,351,3.51,0
384,1395,0.991,4441,991,1,-50,1982,-507,-0.0244140625,0.9677734375,-0.24755859375,-9,-9,6,-0.54931640625,-0.54931640625,0.3662109375,-1502,582,5841,18902,225,-30254,103.831787109375,1.2359619140625,-166.190185546875,355,3.55,0
385,1396,0.993,4443,993,1,-63,1964,-500,-0.03076171875,0.958984375,-0.244140625,-5,-11,12,-0.30517578125,-0.67138671875,0.732421875,-1546,526,5960,18901,224,-30255,103.8262939453125,1.23046875,-166.1956787109375,355,3.55,0
386,1397,0.994,4444,994,2,36,1895,757,0.017578125,0.92529296875,0.36962890625,-19,-11,-4,-1.15966796875,-0.67138671875,-0.244140625,1740,2080,-4037,12486,-320,3747,68.587646484375,-1.7578125,20.5828857421875,357,3.57,0
387,1398,1.012,4462,1012,1,-65,1965,-500,-0.03173828125,0.95947265625,-0.244140625,-3,-19,13,-0.18310546875,-1.15966796875,0.79345703125,-1517,533,5973,18901,223,-30255,103.8262939453125,1.2249755859375,-166.1956787109375,355,3.55,0
388,1399,1.012,4462,1012,2,34,1892,758,0.0166015625,0.923828125,0.3701171875,-13,-21,-5,-0.79345703125,-1.28173828125,-0.30517578125,1751,2100,-4022,12486,-320,3747,68.587646484375,-1.7578125,20.5828857421875,357,3.57,0
389,1400,1.013,4463,1013,0,-47,2008,-345,-0.02294921875,0.98046875,-0.16845703125,-8,-52,-1,-0.48828125,-3.173828125,-0.06103515625,-5418,840,-2237,17927,394,-12789,98.4759521484375,2.164306640625,-70.2520751953125,351,3.51,0
390,1401,1.014,4464,1014,1,-68,1968,-509,-0.033203125,0.9609375,-0.24853515625,-3,-46,12,-0.18310546875,-2.8076171875,0.732421875,-1488,549,5935,18900,222,-30261,103.82080078125,1.219482421875,-166.2286376953125,355,3.55,0
391,1402,1.015,4465,1015,2,42,1892,761,0.0205078125,0.923828125,0.37158203125,-17,-29,-6,-1.03759765625,-1.77001953125,-0.3662109375,1762,2070,-4000,12485,-319,3747,68.5821533203125,-1.7523193359375,20.5828857421875,357,3.57,0
392,1403,1.021,4471,1021,1,-70,1971,-507,-0.0341796875,0.96240234375,-0.24755859375,0,-56,9,0.0,-3.41796875,0.54931640625,-1493,543,5928,18900,223,-30264,103.82080078125,1.2249755859375,-166.2451171875,355,3.55,0
393,1404,1.022,4472,1022,2,46,1893,763,0.0224609375,0.92431640625,0.37255859375,-20,-30,-6,-1.220703125,-1.8310546875,-0.3662109375,1743,2079,-4006,12485,-319,3747,68.5821533203125,-1.7523193359375,20.5828857421875,357,3.57,0
394,1405,1.027,4477,1027,0,-33,2008,-348,-0.01611328125,0.98046875,-0.169921875,-8,-47,-3,-0.48828125,-2.86865234375,-0.18310546875,-5409,836,-2152,17928,392,-12788,98.4814453125,2.1533203125,-70.24658203125,351,3.51,0
395,1406,1.028,4478,1028,1,-71,1967,-513,-0.03466796875,0.96044921875,-0.25048828125,2,-62,7,0.1220703125,-3.7841796875,0.42724609375,-1474,565,5885,18900,223,-30270,103.82080078125,1.2249755859375,-166.278076171875,354,3.54,0
396,1407,1.029,4479,1029,2,49,1894,764,0.02392578125,0.9248046875,0.373046875,-22,-33,-6,-1.3427734375,-2.01416015625,-0.3662109375,1735,2101,-4020,12483,-318,3747,68.5711669921875,-1.746826171875,20.5828857421875,357,3.57,0
397,1408,1.035,4485,1035,1,-70,1969,-515,-0.0341796875,0.96142578125,-0.25146484375,2,-64,6,0.1220703125,-3.90625,0.3662109375,-1487,573,5873,18900,224,-30273,103.82080078125,1.23046875,-166.2945556640625,354,3.54,0
398,1409,1.036,4486,1036,2,56,1897,766,0.02734375,0.92626953125,0.3740234375,-21,-47,-7,-1.28173828125,-2.86865234375,-0.42724609375,1765,2112,-4033,12483,-318,3748,68.5711669921875,-1.746826171875,20.58837890625,357,3.57,0
399,1410,1.05,4500,1050,1,-70,1966,-517,-0.0341796875,0.9599609375,-0.25244140625,1,-60,5,0.06103515625,-3.662109375,0.30517578125,-1486,556,5845,18900,224,-30279,103.82080078125,1.23046875,-166.3275146484375,354,3.54,0
400,1411,1.05,4500,1050,2,59,1899,766,0.02880859375,0.92724609375,0.3740234375,-16,-51,-7,-0.9765625,-3.11279296875,-0.42724609375,1777,2117,-4039,12483,-318,3748,68.5711669921875,-1.746826171875,20.58837890625,357,3.57,0
401,1412,1.055,4505,1055,0,-12,2005,-362,-0.005859375,0.97900390625,-0.1767578125,-18,-29,1,-1.0986328125,-1.77001953125,0.06103515625,-5400,838,-2127,17929,391,-12788,98.4869384765625,2.1478271484375,-70.24658203125,351,3.51,0
402,1413,1.056,4506,1056,1,-62,1973,-513,-0.0302734375,0.96337890625,-0.25048828125,3,-50,3,0.18310546875,-3.0517578125,0.18310546875,-1498,561,5830,18900,225,-30283,103.82080078125,1.2359619140625,-166.3494873046875,354,3.54,0
403,1414,1.057,4507,1057,2,63,1907,760,0.03076171875,0.93115234375,0.37109375,-23,-49,-7,-1.40380859375,-2.99072265625,-0.42724609375,1808,2128,-4053,12482,-318,3748,68.565673828125,-1.746826171875,20.58837890625,357,3.57,0
404,1415,1.062,4512,1062,0,4,1998,-380,0.001953125,0.9755859375,-0.185546875,-14,-15,7,-0.8544921875,-0.91552734375,0.42724609375,-5392,831,-2183,17929,391,-12787,98.4869384765625,2.1478271484375,-70.2410888671875,351,3.51,0
405,1416,1.063,4513,1063,1,-50,1974,-517,-0.0244140625,0.9638671875,-0.25244140625,1,-46,4,0.06103515625,-2.8076171875,0.244140625,-1458,580,5851,18900,226,-30287,103.82080078125,1.241455078125,-166.3714599609375,354,3.54,0
406,1417,1.064,4514,1064,2,63,1907,758,0.03076171875,0.93115234375,0.3701171875,-30,-41,-7,-1.8310546875,-2.50244140625,-0.42724609375,1789,2151,-4047,12482,-318,3748,68.565673828125,-1.746826171875,20.58837890625,357,3.57,0
407,1418,1.069,4519,1069,0,7,2004,-386,0.00341796875,0.978515625,-0.1884765625,-10,-9,11,-0.6103515625,-0.54931640625,0.67138671875,-5388,824,-2209,17931,389,-12788,98.4979248046875,2.1368408203125,-70.24658203125,351,3.51,0
408,1419,1.07,4520,1070,1,-48,1973,-518,-0.0234375,0.96337890625,-0.2529296875,4,-48,2,0.244140625,-2.9296875,0.1220703125,-1474,573,5828,18900,226,-30290,103.82080078125,1.241455078125,-166.387939453125,354,3.54,0
409,1420,1.071,4521,1071,2,60,1907,756,0.029296875,0.93115234375,0.369140625,-37,-39,-6,-2.25830078125,-2.38037109375,-0.3662109375,1765,2144,-3997,12481,-317,3748,68.5601806640625,-1.7413330078125,20.58837890625,357,3.57,0
410,1421,1.076,4526,1076,0,3,2009,-397,0.00146484375,0.98095703125,-0.19384765625,-6,-7,19,-0.3662109375,-0.42724609375,1.15966796875,-5381,813,-2254,17931,389,-12787,98.4979248046875,2.1368408203125,-70.2410888671875,350,3.5,0
411,1422,1.077,4527,1077,1,-39,1977,-509,-0.01904296875,0.96533203125,-0.24853515625,5,-45,3,0.30517578125,-2.74658203125,0.18310546875,-1477,621,5817,18900,226,-30294,103.82080078125,1.241455078125,-166.409912109375,354,3.54,0
412,1423,1.078,4528,1078,2,59,1906,757,0.02880859375,0.9306640625,0.36962890625,-37,-42,-5,-2.25830078125,-2.5634765625,-0.30517578125,1784,2155,-4024,12481,-317,3749,68.5601806640625,-1.7413330078125,20.5938720703125,357,3.57,0
413,1424,1.083,4533,1083,0,0,2009,-395,0.0,0.98095703125,-0.19287109375,-4,-6,20,-0.244140625,-0.3662109375,1.220703125,-5392,814,-2256,17931,389,-12787,98.4979248046875,2.1368408203125,-70.2410888671875,350,3.5,0
414,1425,1.084,4534,1084,1,-37,1974,-512,-0.01806640625,0.9638671875,-0.25,6,-39,7,0.3662109375,-2.38037109375,0.42724609375,-1459,622,5820,18900,226,-30295,103.82080078125,1.241455078125,-166.4154052734375,354,3.54,0
415,1426,1.085,4535,1085,2,59,1906,761,0.02880859375,0.9306640625,0.37158203125,-36,-47,-5,-2.197265625,-2.86865234375,-0.30517578125,1780,2120,-4003,12480,-317,3749,68.5546875,-1.7413330078125,20.5938720703125,357,3.57,0
416,1427,1.091,4541,1091,1,-37,1975,-512,-0.01806640625,0.96435546875,-0.25,3,-33,5,0.18310546875,-2.01416015625,0.30517578125,-1460,612,5872,18900,226,-30297,103.82080078125,1.241455078125,-166.4263916015625,354,3.54,0
417,1428,1.092,4542,1092,2,58,1907,762,0.0283203125,0.93115234375,0.3720703125,-38,-48,-5,-2.3193359375,-2.9296875,-0.30517578125,1780,2118,-4002,12480,-317,3749,68.5546875,-1.7413330078125,20.5938720703125,357,3.57,0
418,1429,1.098,4548,1098,1,-38,1978,-514,-0.0185546875,0.9658203125,-0.2509765625,7,-29,7,0.42724609375,-1.77001953125,0.42724609375,-1446,613,5879,18901,226,-30299,103.8262939453125,1.241455078125,-166.4373779296875,354,3.54,0
419,1430,1.099,4549,1099,2,58,1908,763,0.0283203125,0.931640625,0.37255859375,-38,-46,-5,-2.3193359375,-2.8076171875,-0.30517578125,1782,2136,-4005,12480,-317,3749,68.5546875,-1.7413330078125,20.5938720703125,357,3.57,0
420,1431,1.105,4555,1105,1,-38,1978,-513,-0.0185546875,0.9658203125,-0.25048828125,5,-29,5,0.30517578125,-1.77001953125,0.30517578125,-1476,623,5857,18901,226,-30300,103.8262939453125,1.241455078125,-166.44287109375,354,3.54,0
421,1432,1.113,4563,1113,2,56,1911,765,0.02734375,0.93310546875,0.37353515625,-36,-42,-6,-2.197265625,-2.5634765625,-0.3662109375,1767,2153,-3953,12479,-317,3749,68.5491943359375,-1.7413330078125,20.5938720703125,357,3.57,0
422,1433,1.113,4563,1113,0,-22,2010,-393,-0.0107421875,0.9814453125,-0.19189453125,-4,-30,15,-0.244140625,-1.8310546875,0.91552734375,-5440,840,-2155,17932,387,-12786,98.50341796875,2.1258544921875,-70.235595703125,350,3.5,0
423,1434,1.113,4563,1113,1,-36,1983,-511,-0.017578125,0.96826171875,-0.24951171875,6,-25,5,0.3662109375,-1.52587890625,0.30517578125,-1451,631,5838,18901,226,-30301,103.8262939453125,1.241455078125,-166.4483642578125,354,3.54,0
424,1435,1.113,4563,1113,2,55,1912,766,0.02685546875,0.93359375,0.3740234375,-35,-41,-7,-2.13623046875,-2.50244140625,-0.42724609375,1757,2156,-3976,12479,-317,3749,68.5491943359375,-1.7413330078125,20.5938720703125,357,3.57,0
425,1436,1.118,4568,1118,0,-25,2009,-382,-0.01220703125,0.98095703125,-0.1865234375,-4,-49,8,-0.244140625,-2.99072265625,0.48828125,-5422,874,-2163,17934,385,-12786,98.514404296875,2.1148681640625,-70.235595703125,350,3.5,0
426,1437,1.119,4569,1119,1,-33,1986,-508,-0.01611328125,0.9697265625,-0.248046875,-1,-22,2,-0.06103515625,-1.3427734375,0.1220703125,-1410,624,5824,18901,226,-30302,103.8262939453125,1.241455078125,-166.453857421875,354,3.54,0
427,1438,1.12,4570,1120,2,55,1912,767,0.02685546875,0.93359375,0.37451171875,-34,-39,-6,-2.0751953125,-2.38037109375,-0.3662109375,1773,2152,-4005,12479,-317,3750,68.5491943359375,-1.7413330078125,20.599365234375,357,3.57,0
428,1439,1.126,4576,1126,1,-33,1983,-507,-0.01611328125,0.96826171875,-0.24755859375,-4,-17,2,-0.244140625,-1.03759765625,0.1220703125,-1402,630,5839,18900,226,-30303,103.82080078125,1.241455078125,-166.4593505859375,354,3.54,0
429,1440,1.127,4577,1127,2,56,1908,770,0.02734375,0.931640625,0.3759765625,-27,-40,-5,-1.64794921875,-2.44140625,-0.30517578125,1731,2120,-4028,12478,-317,3750,68.543701171875,-1.7413330078125,20.599365234375,357,3.57,0
430,1441,1.133,4583,1133,1,-32,1976,-500,-0.015625,0.96484375,-0.244140625,-2,-15,5,-0.1220703125,-0.91552734375,0.30517578125,-1397,600,5846,18900,225,-30304,103.82080078125,1.2359619140625,-166.46484375,354,3.54,0
431,1442,1.134,4584,1134,2,57,1906,772,0.02783203125,0.9306640625,0.376953125,-24,-43,-4,-1.46484375,-2.62451171875,-0.244140625,1721,2106,-4019,12478,-317,3750,68.543701171875,-1.7413330078125,20.599365234375,357,3.57,0
432,1443,1.139,4589,1139,0,-30,2000,-367,-0.0146484375,0.9765625,-0.17919921875,-2,-51,6,-0.1220703125,-3.11279296875,0.3662109375,-5450,843,-2138,17936,384,-12786,98.525390625,2.109375,-70.235595703125,350,3.5,0
433,1444,1.14,4590,1140,1,-34,1974,-498,-0.0166015625,0.9638671875,-0.2431640625,1,-16,7,0.06103515625,-0.9765625,0.42724609375,-1379,603,5822,18900,225,-30304,103.82080078125,1.2359619140625,-166.46484375,354,3.54,0
434,1445,1.141,4591,1141,2,61,1903,773,0.02978515625,0.92919921875,0.37744140625,-28,-43,-2,-1.708984375,-2.62451171875,-0.1220703125,1705,2111,-3997,12478,-317,3750,68.543701171875,-1.7413330078125,20.599365234375,357,3.57,0
435,1446,1.146,4596,1146,0,-30,2000,-367,-0.0146484375,0.9765625,-0.17919921875,-2,-51,6,-0.1220703125,-3.11279296875,0.3662109375,-5450,843,-2138,17936,384,-12786,98.525390625,2.109375,-70.235595703125,350,3.5,0
436,1447,1.147,4597,1147,1,-37,1977,-496,-0.01806640625,0.96533203125,-0.2421875,1,-18,7,0.06103515625,-1.0986328125,0.42724609375,-1384,592,5861,18900,225,-30304,103.82080078125,1.2359619140625,-166.46484375,354,3.54,0
437,1448,1.148,4598,1148,2,62,1900,774,0.0302734375,0.927734375,0.3779296875,-25,-33,0,-1.52587890625,-2.01416015625,0.0,1715,2114,-4036,12477,-317,3749,68.5382080078125,-1.7413330078125,20.5938720703125,357,3.57,0
438,1449,1.154,4604,1154,1,-36,1977,-492,-0.017578125,0.96533203125,-0.240234375,3,-16,6,0.18310546875,-0.9765625,0.3662109375,-1418,586,5861,18906,227,-30303,103.853759765625,1.2469482421875,-166.4593505859375,354,3.54,0
439,1450,1.155,4605,1155,2,62,1897,773,0.0302734375,0.92626953125,0.37744140625,-25,-31,2,-1.52587890625,-1.89208984375,0.1220703125,1728,2136,-4059,12476,-317,3747,68.53271484375,-1.7413330078125,20.5828857421875,357,3.57,0
440,1451,1.162,4612,1162,2,63,1892,774,0.03076171875,0.923828125,0.3779296875,-27,-32,2,-1.64794921875,-1.953125,0.1220703125,1740,2162,-4010,12474,-317,3745,68.521728515625,-1.7413330078125,20.5718994140625,357,3.57,0
441,1452,1.168,4618,1168,1,-35,1971,-489,-0.01708984375,0.96240234375,-0.23876953125,1,-12,2,0.06103515625,-0.732421875,0.1220703125,-1408,571,5824,18907,227,-30303,103.8592529296875,1.2469482421875,-166.4593505859375,354,3.54,0
442,1453,1.169,4619,1169,2,63,1890,774,0.03076171875,0.9228515625,0.3779296875,-27,-32,2,-1.64794921875,-1.953125,0.1220703125,1752,2144,-4013,12472,-318,3743,68.5107421875,-1.746826171875,20.5609130859375,357,3.57,0
443,1454,1.176,4626,1176,0,-20,2008,-377,-0.009765625,0.98046875,-0.18408203125,-9,-32,7,-0.54931640625,-1.953125,0.42724609375,-5454,819,-2181,17939,381,-12785,98.5418701171875,2.0928955078125,-70.2301025390625,349,3.49,0
444,1455,1.176,4626,1176,1,-37,1975,-496,-0.01806640625,0.96435546875,-0.2421875,2,-12,2,0.1220703125,-0.732421875,0.1220703125,-1397,584,5809,18907,227,-30303,103.8592529296875,1.2469482421875,-166.4593505859375,354,3.54,0
445,1456,1.177,4627,1177,2,65,1886,776,0.03173828125,0.9208984375,0.37890625,-22,-27,3,-1.3427734375,-1.64794921875,0.18310546875,1773,2140,-3959,12471,-318,3741,68.5052490234375,-1.746826171875,20.5499267578125,357,3.57,0
446,1457,1.182,4632,1182,1,-37,1976,-495,-0.01806640625,0.96484375,-0.24169921875,1,-12,3,0.06103515625,-0.732421875,0.18310546875,-1403,590,5822,18907,227,-30303,103.8592529296875,1.2469482421875,-166.4593505859375,355,3.55,0
447,1458,1.183,4633,1183,2,65,1886,776,0.03173828125,0.9208984375,0.37890625,-23,-25,3,-1.40380859375,-1.52587890625,0.18310546875,1754,2132,-3948,12470,-318,3740,68.499755859375,-1.746826171875,20.54443359375,357,3.57,0
448,1459,1.19,4640,1190,0,-14,2006,-376,-0.0068359375,0.9794921875,-0.18359375,-10,-34,7,-0.6103515625,-2.0751953125,0.42724609375,-5418,833,-2175,17941,379,-12785,98.5528564453125,2.0819091796875,-70.2301025390625,349,3.49,0
449,1460,1.19,4640,1190,1,-35,1978,-503,-0.01708984375,0.9658203125,-0.24560546875,0,-9,-1,0.0,-0.54931640625,-0.06103515625,-1382,598,5858,18908,227,-30303,103.86474609375,1.2469482421875,-166.4593505859375,355,3.55,0
450,1461,1.19,4640,1190,2,63,1886,776,0.03076171875,0.9208984375,0.37890625,-25,-24,3,-1.52587890625,-1.46484375,0.18310546875,1741,2128,-3953,12469,-318,3739,68.4942626953125,-1.746826171875,20.5389404296875,357,3.57,0
451,1462,1.195,4645,1195,0,-9,2004,-375,-0.00439453125,0.978515625,-0.18310546875,-13,-35,7,-0.79345703125,-2.13623046875,0.42724609375,-5407,827,-2187,17941,379,-12785,98.5528564453125,2.0819091796875,-70.2301025390625,349,3.49,0
452,1463,1.196,4646,1196,1,-35,1979,-503,-0.01708984375,0.96630859375,-0.24560546875,0,-10,1,0.0,-0.6103515625,0.06103515625,-1387,582,5887,18908,227,-30303,103.86474609375,1.2469482421875,-166.4593505859375,355,3.55,0
453,1464,1.197,4647,1197,2,61,1889,775,0.02978515625,0.92236328125,0.37841796875,-31,-25,5,-1.89208984375,-1.52587890625,0.30517578125,1743,2119,-3979,12466,-318,3737,68.477783203125,-1.746826171875,20.5279541015625,357,3.57,0
454,1465,1.202,4652,1202,0,-10,2012,-371,-0.0048828125,0.982421875,-0.18115234375,-10,-35,8,-0.6103515625,-2.13623046875,0.48828125,-5394,806,-2190,17941,379,-12784,98.5528564453125,2.0819091796875,-70.224609375,349,3.49,0
455,1466,1.203,4653,1203,1,-37,1975,-511,-0.01806640625,0.96435546875,-0.24951171875,2,-8,2,0.1220703125,-0.48828125,0.1220703125,-1416,565,5877,18908,227,-30303,103.86474609375,1.2469482421875,-166.4593505859375,355,3.55,0
456,1467,1.204,4654,1204,2,60,1889,774,0.029296875,0.92236328125,0.3779296875,-34,-25,6,-2.0751953125,-1.52587890625,0.3662109375,1735,2124,-4005,12465,-319,3736,68.4722900390625,-1.7523193359375,20.5224609375,357,3.57,0
457,1468,1.21,4660,1210,1,-40,1979,-509,-0.01953125,0.96630859375,-0.24853515625,-5,-10,1,-0.30517578125,-0.6103515625,0.06103515625,-1418,549,5868,18908,227,-30303,103.86474609375,1.2469482421875,-166.4593505859375,355,3.55,0
458,1469,1.211,4661,1211,2,60,1889,777,0.029296875,0.92236328125,0.37939453125,-34,-17,6,-2.0751953125,-1.03759765625,0.3662109375,1743,2079,-4005,12461,-319,3735,68.4503173828125,-1.7523193359375,20.5169677734375,357,3.57,0
459,1470,1.216,4666,1216,0,-7,2008,-369,-0.00341796875,0.98046875,-0.18017578125,-12,-37,7,-0.732421875,-2.25830078125,0.42724609375,-5399,832,-2218,17943,377,-12785,98.5638427734375,2.0709228515625,-70.2301025390625,349,3.49,0
460,1471,1.217,4667,1217,1,-35,1978,-506,-0.01708984375,0.9658203125,-0.2470703125,-7,-7,3,-0.42724609375,-0.42724609375,0.18310546875,-1435,559,5897,18908,227,-30303,103.86474609375,1.2469482421875,-166.4593505859375,355,3.55,0
461,1472,1.218,4668,1218,2,59,1888,778,0.02880859375,0.921875,0.3798828125,-31,-14,6,-1.89208984375,-0.8544921875,0.3662109375,1740,2075,-4014,12460,-319,3735,68.44482421875,-1.7523193359375,20.5169677734375,357,3.57,0
462,1473,1.223,4673,1223,0,-7,2014,-364,-0.00341796875,0.9833984375,-0.177734375,-10,-29,6,-0.6103515625,-1.77001953125,0.3662109375,-5427,849,-2235,17943,377,-12784,98.5638427734375,2.0709228515625,-70.224609375,349,3.49,0
463,1474,1.224,4674,1224,1,-42,1974,-505,-0.0205078125,0.9638671875,-0.24658203125,-9,-3,4,-0.54931640625,-0.18310546875,0.244140625,-1419,591,5873,18908,227,-30303,103.86474609375,1.2469482421875,-166.4593505859375,355,3.55,0
464,1475,1.225,4675,1225,2,57,1887,778,0.02783203125,0.92138671875,0.3798828125,-28,-17,6,-1.708984375,-1.03759765625,0.3662109375,1752,2103,-3994,12459,-319,3734,68.4393310546875,-1.7523193359375,20.511474609375,357,3.57,0
465,1476,1.23,4680,1230,0,-8,2014,-360,-0.00390625,0.9833984375,-0.17578125,-7,-20,5,-0.42724609375,-1.220703125,0.30517578125,-5440,836,-2244,17944,376,-12784,98.5693359375,2.0654296875,-70.224609375,349,3.49,0
466,1477,1.231,4681,1231,1,-44,1977,-505,-0.021484375,0.96533203125,-0.24658203125,-10,-4,4,-0.6103515625,-0.244140625,0.244140625,-1436,604,5890,18909,227,-30303,103.8702392578125,1.2469482421875,-166.4593505859375,355,3.55,0
467,1478,1.232,4682,1232,2,56,1885,779,0.02734375,0.92041015625,0.38037109375,-22,-14,9,-1.3427734375,-0.8544921875,0.54931640625,1752,2122,-3971,12457,-319,3734,68.4283447265625,-1.7523193359375,20.511474609375,357,3.57,0
468,1479,1.238,4688,1238,1,-45,1975,-506,-0.02197265625,0.96435546875,-0.2470703125,-10,-5,5,-0.6103515625,-0.30517578125,0.30517578125,-1439,620,5905,18909,227,-30303,103.8702392578125,1.2469482421875,-166.4593505859375,355,3.55,0
469,1480,1.239,4689,1239,2,56,1885,779,0.02734375,0.92041015625,0.38037109375,-19,-12,9,-1.15966796875,-0.732421875,0.54931640625,1743,2151,-3973,12457,-319,3733,68.4283447265625,-1.7523193359375,20.5059814453125,357,3.57,0
470,1481,1.244,4694,1244,0,-9,2005,-357,-0.00439453125,0.97900390625,-0.17431640625,-7,-19,2,-0.42724609375,-1.15966796875,0.1220703125,-5448,802,-2231,17944,376,-12783,98.5693359375,2.0654296875,-70.2191162109375,348,3.48,0
471,1482,1.245,4695,1245,1,-46,1975,-503,-0.0224609375,0.96435546875,-0.24560546875,-8,-3,6,-0.48828125,-0.18310546875,0.3662109375,-1457,588,5892,18909,227,-30302,103.8702392578125,1.2469482421875,-166.453857421875,355,3.55,0
472,1483,1.246,4696,1246,2,55,1887,779,0.02685546875,0.92138671875,0.38037109375,-19,-13,10,-1.15966796875,-0.79345703125,0.6103515625,1735,2146,-3994,12456,-320,3733,68.4228515625,-1.7578125,20.5059814453125,357,3.57,0
473,1484,1.254,4704,1254,1,-49,1979,-507,-0.02392578125,0.96630859375,-0.24755859375,-5,-5,6,-0.30517578125,-0.30517578125,0.3662109375,-1476,578,5871,18909,227,-30302,103.8702392578125,1.2469482421875,-166.453857421875,355,3.55,0
474,1485,1.254,4704,1254,2,56,1893,780,0.02734375,0.92431640625,0.380859375,-18,-11,10,-1.0986328125,-0.67138671875,0.6103515625,1706,2131,-4009,12455,-320,3733,68.4173583984375,-1.7578125,20.5059814453125,357,3.57,0
475,1486,1.258,4708,1258,0,-5,2000,-359,-0.00244140625,0.9765625,-0.17529296875,-8,-14,-1,-0.48828125,-0.8544921875,-0.06103515625,-5415,821,-2153,17945,374,-12783,98.5748291015625,2.054443359375,-70.2191162109375,349,3.49,0
476,1487,1.259,4709,1259,1,-49,1982,-506,-0.02392578125,0.9677734375,-0.2470703125,-8,-8,3,-0.48828125,-0.48828125,0.18310546875,-1475,556,5891,18909,227,-30302,103.8702392578125,1.2469482421875,-166.453857421875,356,3.56,0
477,1488,1.26,4710,1260,2,56,1894,781,0.02734375,0.9248046875,0.38134765625,-15,-4,11,-0.91552734375,-0.244140625,0.67138671875,1707,2143,-3999,12454,-320,3733,68.411865234375,-1.7578125,20.5059814453125,357,3.57,0
478,1489,1.265,4715,1265,0,-5,1998,-357,-0.00244140625,0.9755859375,-0.17431640625,-10,-10,-2,-0.6103515625,-0.6103515625,-0.1220703125,-5427,808,-2149,17945,374,-12783,98.5748291015625,2.054443359375,-70.2191162109375,349,3.49,0
479,1490,1.266,4716,1266,1,-48,1983,-508,-0.0234375,0.96826171875,-0.248046875,-8,-11,5,-0.48828125,-0.67138671875,0.30517578125,-1470,550,5863,18909,227,-30302,103.8702392578125,1.2469482421875,-166.453857421875,356,3.56,0
480,1491,1.267,4717,1267,2,55,1896,782,0.02685546875,0.92578125,0.3818359375,-11,-2,14,-0.67138671875,-0.1220703125,0.8544921875,1680,2134,-4014,12445,-319,3734,68.3624267578125,-1.7523193359375,20.511474609375,357,3.57,0
481,1492,1.273,4723,1273,1,-50,1982,-506,-0.0244140625,0.9677734375,-0.2470703125,-8,-15,6,-0.48828125,-0.91552734375,0.3662109375,-1465,564,5844,18910,227,-30302,103.875732421875,1.2469482421875,-166.453857421875,356,3.56,0
482,1493,1.274,4724,1274,2,53,1896,782,0.02587890625,0.92578125,0.3818359375,-10,-5,15,-0.6103515625,-0.30517578125,0.91552734375,1698,2153,-4021,12445,-319,3734,68.3624267578125,-1.7523193359375,20.511474609375,357,3.57,0
483,1494,1.279,4729,1279,0,-5,1991,-366,-0.00244140625,0.97216796875,-0.1787109375,-6,7,2,-0.3662109375,0.42724609375,0.1220703125,-5445,824,-2161,17947,372,-12783,98.5858154296875,2.04345703125,-70.2191162109375,350,3.5,0
484,1495,1.28,4730,1280,1,-52,1977,-511,-0.025390625,0.96533203125,-0.24951171875,-12,-14,4,-0.732421875,-0.8544921875,0.244140625,-1474,564,5834,18910,227,-30301,103.875732421875,1.2469482421875,-166.4483642578125,356,3.56,0
485,1496,1.281,4731,1281,2,52,1896,781,0.025390625,0.92578125,0.38134765625,-9,-7,17,-0.54931640625,-0.42724609375,1.03759765625,1693,2155,-4055,12445,-319,3734,68.3624267578125,-1.7523193359375,20.511474609375,357,3.57,0
486,1497,1.286,4736,1286,0,-1,1989,-379,-0.00048828125,0.97119140625,-0.18505859375,-7,13,3,-0.42724609375,0.79345703125,0.18310546875,-5442,810,-2165,17947,372,-12783,98.5858154296875,2.04345703125,-70.2191162109375,350,3.5,0
487,1498,1.287,4737,1287,1,-49,1972,-509,-0.02392578125,0.962890625,-0.24853515625,-13,-16,3,-0.79345703125,-0.9765625,0.18310546875,-1470,568,5836,18910,227,-30301,103.875732421875,1.2469482421875,-166.4483642578125,356,3.56,0
488,1499,1.288,4738,1288,2,46,1897,775,0.0224609375,0.92626953125,0.37841796875,-13,-15,22,-0.79345703125,-0.91552734375,1.3427734375,1702,2113,-4024,12442,-319,3734,68.345947265625,-1.7523193359375,20.511474609375,357,3.57,0
489,1500,1.293,4743,1293,0,-5,1987,-387,-0.00244140625,0.97021484375,-0.18896484375,-2,22,9,-0.1220703125,1.3427734375,0.54931640625,-5433,817,-2142,17948,370,-12783,98.59130859375,2.032470703125,-70.2191162109375,350,3.5,0
490,1501,1.294,4744,1294,1,-48,1965,-510,-0.0234375,0.95947265625,-0.2490234375,-9,-17,3,-0.54931640625,-1.03759765625,0.18310546875,-1449,542,5887,18910,227,-30301,103.875732421875,1.2469482421875,-166.4483642578125,356,3.56,0
491,1502,1.295,4745,1295,2,48,1898,775,0.0234375,0.9267578125,0.37841796875,-15,-8,21,-0.91552734375,-0.48828125,1.28173828125,1713,2109,-4043,12442,-319,3734,68.345947265625,-1.7523193359375,20.511474609375,357,3.57,0
492,1503,1.301,4751,1301,1,-44,1960,-513,-0.021484375,0.95703125,-0.25048828125,-11,-15,4,-0.67138671875,-0.91552734375,0.244140625,-1446,542,5910,18910,227,-30300,103.875732421875,1.2469482421875,-166.44287109375,356,3.56,0
493,1504,1.302,4752,1302,2,45,1898,772,0.02197265625,0.9267578125,0.376953125,-17,3,24,-1.03759765625,0.18310546875,1.46484375,1715,2131,-4064,12442,-319,3734,68.345947265625,-1.7523193359375,20.511474609375,357,3.57,0
494,1505,1.307,4757,1307,0,-7,1991,-392,-0.00341796875,0.97216796875,-0.19140625,0,24,11,0.0,1.46484375,0.67138671875,-5437,844,-2139,17948,370,-12783,98.59130859375,2.032470703125,-70.2191162109375,350,3.5,0
495,1506,1.308,4758,1308,1,-43,1962,-511,-0.02099609375,0.9580078125,-0.24951171875,-4,-17,0,-0.244140625,-1.03759765625,0.0,-1408,529,5885,18910,227,-30300,103.875732421875,1.2469482421875,-166.44287109375,356,3.56,0
496,1507,1.309,4759,1309,2,44,1898,772,0.021484375,0.9267578125,0.376953125,-20,1,25,-1.220703125,0.06103515625,1.52587890625,1707,2129,-4028,12441,-319,3734,68.3404541015625,-1.7523193359375,20.511474609375,357,3.57,0
497,1508,1.319,4769,1319,0,-12,1994,-394,-0.005859375,0.9736328125,-0.1923828125,-5,15,10,-0.30517578125,0.91552734375,0.6103515625,-5406,815,-2145,17950,368,-12783,98.602294921875,2.021484375,-70.2191162109375,350,3.5,0
498,1509,1.319,4769,1319,2,44,1897,772,0.021484375,0.92626953125,0.376953125,-20,0,26,-1.220703125,0.0,1.5869140625,1703,2155,-4037,12441,-319,3734,68.3404541015625,-1.7523193359375,20.511474609375,357,3.57,0
499,1510,1.321,4771,1321,0,-12,1992,-392,-0.005859375,0.97265625,-0.19140625,-5,12,9,-0.30517578125,0.732421875,0.54931640625,-5414,814,-2184,17950,368,-12782,98.602294921875,2.021484375,-70.213623046875,350,3.5,0
500,1511,1.322,4772,1322,1,-46,1967,-513,-0.0224609375,0.96044921875,-0.25048828125,0,-15,-5,0.0,-0.91552734375,-0.30517578125,-1449,533,5819,18911,227,-30300,103.8812255859375,1.2469482421875,-166.44287109375,356,3.56,0
501,1512,1.323,4773,1323,2,45,1897,773,0.02197265625,0.92626953125,0.37744140625,-17,-1,28,-1.03759765625,-0.06103515625,1.708984375,1694,2131,-4006,12441,-319,3734,68.3404541015625,-1.7523193359375,20.511474609375,357,3.57,0
502,1513,1.328,4778,1328,0,-13,1987,-388,-0.00634765625,0.97021484375,-0.189453125,-2,-2,6,-0.1220703125,-0.1220703125,0.3662109375,-5423,821,-2153,17951,366,-12783,98.6077880859375,2.010498046875,-70.2191162109375,351,3.51,0
503,1514,1.329,4779,1329,1,-40,1970,-514,-0.01953125,0.9619140625,-0.2509765625,0,-10,-14,0.0,-0.6103515625,-0.8544921875,-1435,537,5818,18912,227,-30300,103.88671875,1.2469482421875,-166.44287109375,356,3.56,0
504,1515,1.33,4780,1330,2,45,1898,772,0.02197265625,0.9267578125,0.376953125,-16,-2,28,-0.9765625,-0.1220703125,1.708984375,1665,2116,-4015,12439,-318,3734,68.3294677734375,-1.746826171875,20.511474609375,357,3.57,0
505,1516,1.335,4785,1335,0,-17,1986,-384,-0.00830078125,0.9697265625,-0.1875,0,-7,2,0.0,-0.42724609375,0.1220703125,-5435,826,-2136,17951,366,-12783,98.6077880859375,2.010498046875,-70.2191162109375,351,3.51,0
506,1517,1.336,4786,1336,1,-35,1970,-517,-0.01708984375,0.9619140625,-0.25244140625,4,-6,-10,0.244140625,-0.3662109375,-0.6103515625,-1426,524,5851,18912,227,-30300,103.88671875,1.2469482421875,-166.44287109375,356,3.56,0
507,1518,1.337,4787,1337,2,43,1899,770,0.02099609375,0.92724609375,0.3759765625,-18,-3,32,-1.0986328125,-0.18310546875,1.953125,1668,2119,-3974,12439,-318,3733,68.3294677734375,-1.746826171875,20.5059814453125,357,3.57,0
508,1519,1.343,4793,1343,1,-31,1973,-512,-0.01513671875,0.96337890625,-0.25,3,1,-9,0.18310546875,0.06103515625,-0.54931640625,-1431,535,5881,18912,227,-30300,103.88671875,1.2469482421875,-166.44287109375,356,3.56,0
509,1520,1.344,4794,1344,2,41,1899,769,0.02001953125,0.92724609375,0.37548828125,-18,-3,34,-1.0986328125,-0.18310546875,2.0751953125,1676,2141,-3956,12439,-318,3733,68.3294677734375,-1.746826171875,20.5059814453125,357,3.57,0
510,1521,1.349,4799,1349,0,-28,1993,-361,-0.013671875,0.97314453125,-0.17626953125,2,-28,-2,0.1220703125,-1.708984375,-0.1220703125,-5427,847,-2089,17953,365,-12782,98.6187744140625,2.0050048828125,-70.213623046875,351,3.51,0
511,1522,1.35,4800,1350,1,-31,1977,-518,-0.01513671875,0.96533203125,-0.2529296875,-4,5,-11,-0.244140625,0.30517578125,-0.67138671875,-1422,533,5876,18912,227,-30300,103.88671875,1.2469482421875,-166.44287109375,357,3.57,0
512,1523,1.363,4813,1363,2,39,1897,769,0.01904296875,0.92626953125,0.37548828125,-18,-4,36,-1.0986328125,-0.244140625,2.197265625,1660,2135,-3963,12438,-318,3733,68.323974609375,-1.746826171875,20.5059814453125,357,3.57,0
513,1524,1.363,4813,1363,0,-34,2008,-333,-0.0166015625,0.98046875,-0.16259765625,-4,-38,-4,-0.244140625,-2.3193359375,-0.244140625,-5440,818,-2030,17953,365,-12783,98.6187744140625,2.0050048828125,-70.2191162109375,351,3.51,0
514,1525,1.364,4814,1364,1,-25,1976,-520,-0.01220703125,0.96484375,-0.25390625,-8,14,-13,-0.48828125,0.8544921875,-0.79345703125,-1427,542,5886,18912,227,-30300,103.88671875,1.2469482421875,-166.44287109375,357,3.57,0
515,1526,1.365,4815,1365,2,37,1890,766,0.01806640625,0.9228515625,0.3740234375,-17,-16,40,-1.03759765625,-0.9765625,2.44140625,1632,2144,-3972,12438,-318,3733,68.323974609375,-1.746826171875,20.5059814453125,357,3.57,0
516,1527,1.37,4820,1370,0,-32,2022,-328,-0.015625,0.9873046875,-0.16015625,-7,-37,-2,-0.42724609375,-2.25830078125,-0.1220703125,-5431,817,-2078,17954,363,-12783,98.624267578125,1.9940185546875,-70.2191162109375,351,3.51,0
517,1528,1.371,4821,1371,1,-27,1969,-515,-0.01318359375,0.96142578125,-0.25146484375,-10,18,-11,-0.6103515625,1.0986328125,-0.67138671875,-1404,548,5912,18913,226,-30300,103.8922119140625,1.241455078125,-166.44287109375,357,3.57,0
518,1529,1.372,4822,1372,2,37,1890,764,0.01806640625,0.9228515625,0.373046875,-19,-24,43,-1.15966796875,-1.46484375,2.62451171875,1638,2115,-3993,12437,-317,3733,68.3184814453125,-1.7413330078125,20.5059814453125,357,3.57,0
519,1530,1.377,4827,1377,0,-34,2035,-320,-0.0166015625,0.99365234375,-0.15625,-7,-27,-1,-0.42724609375,-1.64794921875,-0.06103515625,-5437,818,-2085,17954,363,-12783,98.624267578125,1.9940185546875,-70.2191162109375,351,3.51,0
520,1531,1.378,4828,1378,1,-28,1965,-513,-0.013671875,0.95947265625,-0.25048828125,-11,17,-13,-0.67138671875,1.03759765625,-0.79345703125,-1420,556,5933,18913,226,-30300,103.8922119140625,1.241455078125,-166.44287109375,357,3.57,0
521,1532,1.379,4829,1379,2,44,1894,767,0.021484375,0.9248046875,0.37451171875,-19,-24,42,-1.15966796875,-1.46484375,2.5634765625,1671,2089,-3991,12437,-317,3733,68.3184814453125,-1.7413330078125,20.5059814453125,357,3.57,0
522,1533,1.384,4834,1384,0,-26,2054,-328,-0.0126953125,1.0029296875,-0.16015625,-9,10,3,-0.54931640625,0.6103515625,0.18310546875,-5434,791,-2112,17952,365,-12782,98.61328125,2.0050048828125,-70.213623046875,351,3.51,0
523,1534,1.385,4835,1385,1,-29,1962,-509,-0.01416015625,0.9580078125,-0.24853515625,-4,17,-13,-0.244140625,1.03759765625,-0.79345703125,-1403,537,5898,18913,226,-30300,103.8922119140625,1.241455078125,-166.44287109375,357,3.57,0
524,1535,1.386,4836,1386,2,47,1901,766,0.02294921875,0.92822265625,0.3740234375,-12,-30,41,-0.732421875,-1.8310546875,2.50244140625,1664,2090,-3992,12437,-317,3733,68.3184814453125,-1.7413330078125,20.5059814453125,357,3.57,0
525,1536,1.391,4841,1391,0,-26,2054,-332,-0.0126953125,1.0029296875,-0.162109375,-13,34,4,-0.79345703125,2.0751953125,0.244140625,-5450,788,-2098,17950,367,-12781,98.602294921875,2.0159912109375,-70.2081298828125,351,3.51,0
526,1537,1.392,4842,1392,1,-36,1966,-508,-0.017578125,0.9599609375,-0.248046875,5,10,-10,0.30517578125,0.6103515625,-0.6103515625,-1422,532,5888,18914,226,-30300,103.897705078125,1.241455078125,-166.44287109375,357,3.57,0
527,1538,1.399,4849,1399,1,-41,1973,-511,-0.02001953125,0.96337890625,-0.24951171875,7,2,-12,0.42724609375,0.1220703125,-0.732421875,-1432,531,5879,18914,226,-30300,103.897705078125,1.241455078125,-166.44287109375,358,3.58,0
528,1539,1.4,4850,1400,2,57,1938,749,0.02783203125,0.9462890625,0.36572265625,-20,-62,35,-1.220703125,-3.7841796875,2.13623046875,1661,2150,-3951,12435,-323,3727,68.3074951171875,-1.7742919921875,20.4730224609375,357,3.57,0
529,1540,1.405,4855,1405,0,-10,2014,-390,-0.0048828125,0.9833984375,-0.1904296875,-11,94,4,-0.67138671875,5.7373046875,0.244140625,-5442,755,-2171,17944,372,-12770,98.5693359375,2.04345703125,-70.147705078125,351,3.51,0
530,1541,1.406,4856,1406,1,-50,1990,-504,-0.0244140625,0.9716796875,-0.24609375,13,-7,-10,0.79345703125,-0.42724609375,-0.6103515625,-1469,522,5901,18914,226,-30299,103.897705078125,1.241455078125,-166.4373779296875,358,3.58,0
531,1542,1.407,4857,1407,2,65,1947,744,0.03173828125,0.95068359375,0.36328125,-30,-44,29,-1.8310546875,-2.685546875,1.77001953125,1657,2187,-3949,12434,-325,3726,68.302001953125,-1.7852783203125,20.467529296875,357,3.57,0
532,1543,1.412,4862,1412,0,-6,1991,-410,-0.0029296875,0.97216796875,-0.2001953125,-1,100,8,-0.06103515625,6.103515625,0.48828125,-5448,774,-2185,17942,373,-12765,98.558349609375,2.0489501953125,-70.1202392578125,351,3.51,0
533,1544,1.413,4863,1413,1,-52,1988,-500,-0.025390625,0.970703125,-0.244140625,8,-9,-10,0.48828125,-0.54931640625,-0.6103515625,-1488,507,5945,18914,226,-30299,103.897705078125,1.241455078125,-166.4373779296875,358,3.58,0
534,1545,1.422,4872,1422,2,73,1956,739,0.03564453125,0.955078125,0.36083984375,-54,0,13,-3.2958984375,0.0,0.79345703125,1649,2169,-4000,12428,-325,3727,68.26904296875,-1.7852783203125,20.4730224609375,357,3.57,0
535,1546,1.422,4872,1422,0,7,1965,-444,0.00341796875,0.95947265625,-0.216796875,40,84,23,2.44140625,5.126953125,1.40380859375,-5428,794,-2198,17943,374,-12758,98.5638427734375,2.054443359375,-70.081787109375,351,3.51,0
536,1547,1.422,4872,1422,1,-50,1980,-484,-0.0244140625,0.966796875,-0.236328125,8,-7,-6,0.48828125,-0.42724609375,-0.3662109375,-1470,520,5957,18914,226,-30299,103.897705078125,1.241455078125,-166.4373779296875,358,3.58,0
537,1548,1.422,4872,1422,2,71,1955,742,0.03466796875,0.95458984375,0.3623046875,-62,13,8,-3.7841796875,0.79345703125,0.48828125,1668,2142,-3941,12425,-325,3728,68.2525634765625,-1.7852783203125,20.478515625,357,3.57,0
538,1549,1.427,4877,1427,1,-47,1978,-478,-0.02294921875,0.9658203125,-0.2333984375,16,0,-6,0.9765625,0.0,-0.3662109375,-1456,544,5959,18914,226,-30299,103.897705078125,1.241455078125,-166.4373779296875,358,3.58,0
539,1550,1.428,4878,1428,2,58,1943,757,0.0283203125,0.94873046875,0.36962890625,-55,4,0,-3.35693359375,0.244140625,0.0,1636,2168,-3955,12420,-323,3729,68.22509765625,-1.7742919921875,20.4840087890625,357,3.57,0
540,1551,1.433,4883,1433,0,9,1970,-446,0.00439453125,0.9619140625,-0.2177734375,65,64,33,3.96728515625,3.90625,2.01416015625,-5411,782,-2198,17946,374,-12756,98.580322265625,2.054443359375,-70.07080078125,351,3.51,0
541,1552,1.434,4884,1434,1,-46,1975,-478,-0.0224609375,0.96435546875,-0.2333984375,12,-4,-5,0.732421875,-0.244140625,-0.30517578125,-1477,550,5955,18915,226,-30299,103.9031982421875,1.241455078125,-166.4373779296875,358,3.58,0
