record_index,sequence,time_s,tick_ms,tick_elapsed_ms,device_id,accel_x_raw,accel_y_raw,accel_z_raw,accel_x_g,accel_y_g,accel_z_g,gyro_x_raw,gyro_y_raw,gyro_z_raw,gyro_x_dps,gyro_y_dps,gyro_z_dps,mag_x_raw,mag_y_raw,mag_z_raw,angle_x_raw,angle_y_raw,angle_z_raw,angle_x_deg,angle_y_deg,angle_z_deg,battery_raw,battery_voltage,sequence_gap_before
0,91253,0.0,251123,0,1,-25,1993,-415,-0.01220703125,0.97314453125,-0.20263671875,-8,12,-5,-0.48828125,0.732421875,-0.30517578125,391,-1945,4789,18653,200,31861,102.4639892578125,1.0986328125,175.0177001953125,354,3.54,0
1,91254,0.0,251123,0,2,-100,1904,730,-0.048828125,0.9296875,0.3564453125,-15,-15,6,-0.91552734375,-0.91552734375,0.3662109375,277,-1116,-4026,12389,557,654,68.0548095703125,3.0596923828125,3.592529296875,356,3.56,0
2,91255,0.001,251124,1,2,-105,1918,724,-0.05126953125,0.9365234375,0.353515625,-10,-10,5,-0.6103515625,-0.6103515625,0.30517578125,316,-1079,-4004,12389,557,650,68.0548095703125,3.0596923828125,3.570556640625,357,3.57,0
3,91256,0.004,251127,4,0,-48,2013,-389,-0.0234375,0.98291015625,-0.18994140625,-7,-32,1,-0.42724609375,-1.953125,0.06103515625,-2641,-2266,-1689,18254,234,-9502,100.272216796875,1.285400390625,-52.196044921875,349,3.49,0
4,91257,0.006,251129,6,1,-35,2006,-420,-0.01708984375,0.9794921875,-0.205078125,6,-10,7,0.3662109375,-0.6103515625,0.42724609375,420,-1964,4818,18653,200,31863,102.4639892578125,1.0986328125,175.0286865234375,354,3.54,0
5,91258,0.007,251130,7,2,-105,1918,727,-0.05126953125,0.9365234375,0.35498046875,-6,-11,6,-0.3662109375,-0.67138671875,0.3662109375,304,-1085,-4005,12389,557,650,68.0548095703125,3.0596923828125,3.570556640625,357,3.57,0
6,91259,0.012,251135,12,0,-44,2014,-377,-0.021484375,0.9833984375,-0.18408203125,-8,-34,0,-0.48828125,-2.0751953125,0.0,-2663,-2269,-1671,18254,234,-9502,100.272216796875,1.285400390625,-52.196044921875,349,3.49,0
7,91260,0.012,251135,12,1,-41,2005,-423,-0.02001953125,0.97900390625,-0.20654296875,0,-14,8,0.0,-0.8544921875,0.48828125,466,-1963,4856,18653,200,31862,102.4639892578125,1.0986328125,175.023193359375,354,3.54,0
8,91261,0.013,251136,13,2,-104,1919,729,-0.05078125,0.93701171875,0.35595703125,1,-12,6,0.06103515625,-0.732421875,0.3662109375,306,-1088,-4039,12389,557,649,68.0548095703125,3.0596923828125,3.5650634765625,357,3.57,0
9,91262,0.018,251141,18,0,-37,2008,-372,-0.01806640625,0.98046875,-0.181640625,-6,-38,1,-0.3662109375,-2.3193359375,0.06103515625,-2669,-2300,-1720,18254,234,-9502,100.272216796875,1.285400390625,-52.196044921875,350,3.5,0
10,91263,0.019,251142,19,1,-43,2002,-427,-0.02099609375,0.9775390625,-0.20849609375,-2,-17,7,-0.1220703125,-1.03759765625,0.42724609375,484,-1951,4839,18652,200,31861,102.45849609375,1.0986328125,175.0177001953125,355,3.55,0
11,91264,0.02,251143,20,2,-102,1921,729,-0.0498046875,0.93798828125,0.35595703125,4,-13,6,0.244140625,-0.79345703125,0.3662109375,306,-1125,-4045,12390,557,648,68.060302734375,3.0596923828125,3.5595703125,357,3.57,0
12,91265,0.026,251149,26,0,-31,2010,-367,-0.01513671875,0.9814453125,-0.17919921875,-7,-41,3,-0.42724609375,-2.50244140625,0.18310546875,-2672,-2290,-1725,18254,234,-9501,100.272216796875,1.285400390625,-52.1905517578125,350,3.5,0
13,91266,0.026,251149,26,1,-44,1989,-425,-0.021484375,0.97119140625,-0.20751953125,-5,-24,7,-0.30517578125,-1.46484375,0.42724609375,489,-1943,4859,18651,199,31859,102.4530029296875,1.0931396484375,175.0067138671875,355,3.55,0
14,91267,0.028,251151,28,2,-100,1922,727,-0.048828125,0.9384765625,0.35498046875,0,-12,6,0.0,-0.732421875,0.3662109375,308,-1112,-4027,12390,557,647,68.060302734375,3.0596923828125,3.5540771484375,357,3.57,0
15,91268,0.032,251155,32,0,-31,2010,-367,-0.01513671875,0.9814453125,-0.17919921875,-7,-41,3,-0.42724609375,-2.50244140625,0.18310546875,-2672,-2290,-1725,18254,234,-9501,100.272216796875,1.285400390625,-52.1905517578125,350,3.5,0
16,91269,0.033,251156,33,1,-43,1991,-424,-0.02099609375,0.97216796875,-0.20703125,-1,-23,10,-0.06103515625,-1.40380859375,0.6103515625,470,-1935,4837,18651,199,31858,102.4530029296875,1.0931396484375,175.001220703125,355,3.55,0
17,91270,0.034,251157,34,2,-96,1923,727,-0.046875,0.93896484375,0.35498046875,-6,-11,9,-0.3662109375,-0.67138671875,0.54931640625,308,-1076,-4035,12390,557,646,68.060302734375,3.0596923828125,3.548583984375,357,3.57,0
18,91271,0.039,251162,39,0,-26,2007,-363,-0.0126953125,0.97998046875,-0.17724609375,-13,-32,8,-0.79345703125,-1.953125,0.48828125,-2679,-2295,-1697,18254,233,-9501,100.272216796875,1.2799072265625,-52.1905517578125,350,3.5,0
19,91272,0.04,251163,40,1,-41,1987,-422,-0.02001953125,0.97021484375,-0.2060546875,5,-22,9,0.30517578125,-1.3427734375,0.54931640625,470,-1939,4825,18651,199,31857,102.4530029296875,1.0931396484375,174.9957275390625,355,3.55,0
20,91273,0.041,251164,41,2,-93,1922,727,-0.04541015625,0.9384765625,0.35498046875,-5,-11,9,-0.30517578125,-0.67138671875,0.54931640625,313,-1078,-4057,12390,557,646,68.060302734375,3.0596923828125,3.548583984375,357,3.57,0
21,91274,0.046,251169,46,0,-27,2006,-365,-0.01318359375,0.9794921875,-0.17822265625,-18,-27,9,-1.0986328125,-1.64794921875,0.54931640625,-2701,-2286,-1675,18254,233,-9502,100.272216796875,1.2799072265625,-52.196044921875,350,3.5,0
22,91275,0.048,251171,48,1,-40,1990,-424,-0.01953125,0.9716796875,-0.20703125,4,-20,6,0.244140625,-1.220703125,0.3662109375,443,-1914,4815,18651,199,31856,102.4530029296875,1.0931396484375,174.990234375,355,3.55,0
23,91276,0.049,251172,49,2,-90,1920,727,-0.0439453125,0.9375,0.35498046875,-3,-10,10,-0.18310546875,-0.6103515625,0.6103515625,308,-1043,-4058,12390,556,645,68.060302734375,3.05419921875,3.5430908203125,357,3.57,0
24,91277,0.053,251176,53,0,-26,1991,-374,-0.0126953125,0.97216796875,-0.1826171875,-17,-17,11,-1.03759765625,-1.03759765625,0.67138671875,-2658,-2280,-1714,18254,233,-9502,100.272216796875,1.2799072265625,-52.196044921875,350,3.5,0
25,91278,0.054,251177,54,1,-42,1996,-421,-0.0205078125,0.974609375,-0.20556640625,6,-15,5,0.3662109375,-0.91552734375,0.30517578125,422,-1916,4819,18651,199,31856,102.4530029296875,1.0931396484375,174.990234375,355,3.55,0
26,91279,0.055,251178,55,2,-86,1914,727,-0.0419921875,0.9345703125,0.35498046875,-1,-9,11,-0.06103515625,-0.54931640625,0.67138671875,300,-1052,-4012,12390,556,644,68.060302734375,3.05419921875,3.53759765625,357,3.57,0
27,91280,0.061,251184,61,0,-25,1993,-379,-0.01220703125,0.97314453125,-0.18505859375,-16,-13,15,-0.9765625,-0.79345703125,0.91552734375,-2661,-2277,-1711,18254,233,-9502,100.272216796875,1.2799072265625,-52.196044921875,351,3.51,0
28,91281,0.062,251185,62,1,-45,1998,-420,-0.02197265625,0.9755859375,-0.205078125,8,-13,2,0.48828125,-0.79345703125,0.1220703125,438,-1927,4776,18651,199,31856,102.4530029296875,1.0931396484375,174.990234375,355,3.55,0
29,91282,0.062,251185,62,2,-84,1912,728,-0.041015625,0.93359375,0.35546875,-2,-8,11,-0.1220703125,-0.48828125,0.67138671875,302,-1051,-4021,12390,556,644,68.060302734375,3.05419921875,3.53759765625,357,3.57,0
30,91283,0.073,251196,73,0,-25,1986,-379,-0.01220703125,0.9697265625,-0.18505859375,-11,-7,15,-0.67138671875,-0.42724609375,0.91552734375,-2663,-2274,-1708,18254,233,-9501,100.272216796875,1.2799072265625,-52.1905517578125,351,3.51,0
31,91284,0.073,251196,73,1,-47,2004,-422,-0.02294921875,0.978515625,-0.2060546875,6,-14,1,0.3662109375,-0.8544921875,0.06103515625,445,-1957,4759,18651,199,31855,102.4530029296875,1.0931396484375,174.9847412109375,355,3.55,0
32,91285,0.074,251197,74,2,-84,1911,728,-0.041015625,0.93310546875,0.35546875,-3,-7,11,-0.18310546875,-0.42724609375,0.67138671875,318,-1060,-4017,12390,556,644,68.060302734375,3.05419921875,3.53759765625,357,3.57,0
33,91286,0.075,251198,75,0,-22,1991,-392,-0.0107421875,0.97216796875,-0.19140625,-3,3,19,-0.18310546875,0.18310546875,1.15966796875,-2628,-2284,-1689,18254,232,-9501,100.272216796875,1.2744140625,-52.1905517578125,351,3.51,0
34,91287,0.076,251199,76,1,-44,1999,-418,-0.021484375,0.97607421875,-0.2041015625,4,-13,-1,0.244140625,-0.79345703125,-0.06103515625,453,-1958,4770,18646,198,31854,102.425537109375,1.087646484375,174.979248046875,355,3.55,0
35,91288,0.076,251199,76,2,-85,1909,729,-0.04150390625,0.93212890625,0.35595703125,-3,-6,14,-0.18310546875,-0.3662109375,0.8544921875,288,-1058,-4046,12390,555,644,68.060302734375,3.0487060546875,3.53759765625,357,3.57,0
36,91289,0.082,251205,82,0,-22,1993,-392,-0.0107421875,0.97314453125,-0.19140625,4,12,18,0.244140625,0.732421875,1.0986328125,-2657,-2291,-1694,18254,232,-9501,100.272216796875,1.2744140625,-52.1905517578125,350,3.5,0
37,91290,0.082,251205,82,1,-40,1992,-421,-0.01953125,0.97265625,-0.20556640625,0,-1,4,0.0,-0.06103515625,0.244140625,466,-1935,4777,18646,198,31853,102.425537109375,1.087646484375,174.9737548828125,355,3.55,0
38,91291,0.083,251206,83,2,-87,1908,729,-0.04248046875,0.931640625,0.35595703125,-1,-6,16,-0.06103515625,-0.3662109375,0.9765625,280,-1057,-4067,12390,555,644,68.060302734375,3.0487060546875,3.53759765625,357,3.57,0
39,91292,0.09,251213,90,1,-41,1996,-428,-0.02001953125,0.974609375,-0.208984375,-1,2,3,-0.06103515625,0.1220703125,0.18310546875,439,-1947,4793,18646,198,31853,102.425537109375,1.087646484375,174.9737548828125,355,3.55,0
40,91293,0.091,251214,91,2,-89,1909,726,-0.04345703125,0.93212890625,0.3544921875,0,-7,19,0.0,-0.42724609375,1.15966796875,244,-1073,-4097,12391,554,644,68.0657958984375,3.043212890625,3.53759765625,357,3.57,0
41,91294,0.095,251218,95,0,-21,2010,-393,-0.01025390625,0.9814453125,-0.19189453125,3,21,23,0.18310546875,1.28173828125,1.40380859375,-2670,-2317,-1712,18254,232,-9501,100.272216796875,1.2744140625,-52.1905517578125,350,3.5,0
42,91295,0.096,251219,96,1,-44,1994,-429,-0.021484375,0.9736328125,-0.20947265625,0,4,3,0.0,0.244140625,0.18310546875,437,-1937,4789,18644,198,31853,102.41455078125,1.087646484375,174.9737548828125,355,3.55,0
43,91296,0.097,251220,97,2,-90,1911,724,-0.0439453125,0.93310546875,0.353515625,-5,-8,20,-0.30517578125,-0.48828125,1.220703125,228,-1080,-4110,12391,554,644,68.0657958984375,3.043212890625,3.53759765625,357,3.57,0
44,91297,0.103,251226,103,0,-27,2014,-394,-0.01318359375,0.9833984375,-0.1923828125,2,21,24,0.1220703125,1.28173828125,1.46484375,-2651,-2309,-1705,18254,232,-9501,100.272216796875,1.2744140625,-52.1905517578125,350,3.5,0
45,91298,0.103,251226,103,1,-43,1989,-427,-0.02099609375,0.97119140625,-0.20849609375,-4,1,6,-0.244140625,0.06103515625,0.3662109375,421,-1959,4766,18644,198,31853,102.41455078125,1.087646484375,174.9737548828125,355,3.55,0
46,91299,0.104,251227,104,2,-90,1913,723,-0.0439453125,0.93408203125,0.35302734375,-9,-10,20,-0.54931640625,-0.6103515625,1.220703125,240,-1077,-4139,12391,554,640,68.0657958984375,3.043212890625,3.515625,357,3.57,0
47,91300,0.109,251232,109,0,-32,2017,-386,-0.015625,0.98486328125,-0.1884765625,-5,18,22,-0.30517578125,1.0986328125,1.3427734375,-2653,-2323,-1685,18254,232,-9500,100.272216796875,1.2744140625,-52.18505859375,350,3.5,0
48,91301,0.11,251233,110,1,-41,1980,-426,-0.02001953125,0.966796875,-0.2080078125,-5,-2,8,-0.30517578125,-0.1220703125,0.48828125,424,-1958,4768,18644,198,31853,102.41455078125,1.087646484375,174.9737548828125,355,3.55,0
49,91302,0.112,251235,112,2,-92,1913,725,-0.044921875,0.93408203125,0.35400390625,-10,-9,20,-0.6103515625,-0.54931640625,1.220703125,278,-1077,-4125,12394,551,642,68.082275390625,3.0267333984375,3.526611328125,357,3.57,0
50,91303,0.117,251240,117,0,-38,2015,-383,-0.0185546875,0.98388671875,-0.18701171875,-9,17,20,-0.54931640625,1.03759765625,1.220703125,-2647,-2312,-1679,18254,231,-9500,100.272216796875,1.2689208984375,-52.18505859375,350,3.5,0
51,91304,0.117,251240,117,1,-44,1979,-428,-0.021484375,0.96630859375,-0.208984375,2,-6,11,0.1220703125,-0.3662109375,0.67138671875,438,-1955,4724,18643,198,31853,102.4090576171875,1.087646484375,174.9737548828125,355,3.55,0
52,91305,0.118,251241,118,2,-92,1913,726,-0.044921875,0.93408203125,0.3544921875,-7,-9,21,-0.42724609375,-0.54931640625,1.28173828125,294,-1083,-4093,12394,551,642,68.082275390625,3.0267333984375,3.526611328125,357,3.57,0
53,91306,0.123,251246,123,0,-38,2015,-383,-0.0185546875,0.98388671875,-0.18701171875,-9,17,20,-0.54931640625,1.03759765625,1.220703125,-2647,-2312,-1679,18254,231,-9500,100.272216796875,1.2689208984375,-52.18505859375,350,3.5,0
54,91307,0.124,251247,124,1,-47,1978,-426,-0.02294921875,0.9658203125,-0.2080078125,7,-4,7,0.42724609375,-0.244140625,0.42724609375,440,-1981,4733,18643,198,31853,102.4090576171875,1.087646484375,174.9737548828125,354,3.54,0
55,91308,0.125,251248,125,2,-93,1912,725,-0.04541015625,0.93359375,0.35400390625,-6,-11,18,-0.3662109375,-0.67138671875,1.0986328125,293,-1053,-4040,12394,551,641,68.082275390625,3.0267333984375,3.5211181640625,357,3.57,0
56,91309,0.136,251259,136,0,-56,2008,-381,-0.02734375,0.98046875,-0.18603515625,-11,4,22,-0.67138671875,0.244140625,1.3427734375,-2663,-2310,-1608,18254,231,-9502,100.272216796875,1.2689208984375,-52.196044921875,350,3.5,0
57,91310,0.136,251259,136,1,-46,1985,-426,-0.0224609375,0.96923828125,-0.2080078125,8,-7,7,0.48828125,-0.42724609375,0.42724609375,456,-1989,4737,18643,198,31853,102.4090576171875,1.087646484375,174.9737548828125,354,3.54,0
58,91311,0.136,251259,136,2,-91,1912,724,-0.04443359375,0.93359375,0.353515625,-8,-10,18,-0.48828125,-0.6103515625,1.0986328125,300,-1051,-4046,12395,550,641,68.0877685546875,3.021240234375,3.5211181640625,357,3.57,0
59,91312,0.138,251261,138,0,-63,2007,-382,-0.03076171875,0.97998046875,-0.1865234375,-12,-4,19,-0.732421875,-0.244140625,1.15966796875,-2638,-2320,-1656,18254,231,-9502,100.272216796875,1.2689208984375,-52.196044921875,350,3.5,0
60,91313,0.138,251261,138,1,-50,1994,-425,-0.0244140625,0.9736328125,-0.20751953125,5,-6,6,0.30517578125,-0.3662109375,0.3662109375,439,-1965,4728,18643,198,31853,102.4090576171875,1.087646484375,174.9737548828125,354,3.54,0
61,91314,0.14,251263,140,2,-88,1913,723,-0.04296875,0.93408203125,0.35302734375,-11,-9,15,-0.67138671875,-0.54931640625,0.91552734375,310,-1055,-4034,12395,550,641,68.0877685546875,3.021240234375,3.5211181640625,357,3.57,0
62,91315,0.144,251267,144,0,-65,2003,-386,-0.03173828125,0.97802734375,-0.1884765625,-11,-17,19,-0.67138671875,-1.03759765625,1.15966796875,-2646,-2334,-1650,18254,231,-9503,100.272216796875,1.2689208984375,-52.2015380859375,350,3.5,0
63,91316,0.146,251269,146,1,-52,1997,-428,-0.025390625,0.97509765625,-0.208984375,10,-8,5,0.6103515625,-0.48828125,0.30517578125,426,-1959,4743,18643,198,31853,102.4090576171875,1.087646484375,174.9737548828125,354,3.54,0
64,91317,0.155,251278,155,2,-88,1916,725,-0.04296875,0.935546875,0.35400390625,-17,-8,13,-1.03759765625,-0.48828125,0.79345703125,298,-1039,-4026,12395,550,641,68.0877685546875,3.021240234375,3.5211181640625,357,3.57,0
65,91318,0.158,251281,158,0,-69,2000,-388,-0.03369140625,0.9765625,-0.189453125,-11,-21,15,-0.67138671875,-1.28173828125,0.91552734375,-2647,-2347,-1652,18254,231,-9503,100.272216796875,1.2689208984375,-52.2015380859375,350,3.5,0
66,91319,0.16,251283,160,1,-52,2002,-430,-0.025390625,0.9775390625,-0.2099609375,7,-7,5,0.42724609375,-0.42724609375,0.30517578125,398,-1926,4717,18642,198,31853,102.403564453125,1.087646484375,174.9737548828125,354,3.54,0
67,91320,0.16,251283,160,2,-89,1916,731,-0.04345703125,0.935546875,0.35693359375,-16,-3,13,-0.9765625,-0.18310546875,0.79345703125,306,-1040,-4046,12396,550,640,68.09326171875,3.021240234375,3.515625,357,3.57,0
68,91321,0.166,251289,166,0,-56,2008,-388,-0.02734375,0.98046875,-0.189453125,-5,-8,19,-0.30517578125,-0.48828125,1.15966796875,-2691,-2357,-1701,18254,231,-9503,100.272216796875,1.2689208984375,-52.2015380859375,350,3.5,0
69,91322,0.166,251289,166,1,-49,2002,-430,-0.02392578125,0.9775390625,-0.2099609375,8,-7,6,0.48828125,-0.42724609375,0.3662109375,379,-1916,4733,18642,198,31854,102.403564453125,1.087646484375,174.979248046875,354,3.54,0
70,91323,0.172,251295,172,0,-55,2014,-388,-0.02685546875,0.9833984375,-0.189453125,-3,-6,20,-0.18310546875,-0.3662109375,1.220703125,-2687,-2337,-1690,18254,231,-9503,100.272216796875,1.2689208984375,-52.2015380859375,349,3.49,0
71,91324,0.174,251297,174,1,-44,2002,-426,-0.021484375,0.9775390625,-0.2080078125,6,-3,5,0.3662109375,-0.18310546875,0.30517578125,381,-1924,4691,18641,199,31854,102.3980712890625,1.0931396484375,174.979248046875,354,3.54,0
72,91325,0.175,251298,175,2,-87,1918,734,-0.04248046875,0.9365234375,0.3583984375,-7,-7,14,-0.42724609375,-0.42724609375,0.8544921875,315,-1033,-4035,12396,549,641,68.09326171875,3.0157470703125,3.5211181640625,357,3.57,0
73,91326,0.18,251303,180,0,-53,2020,-385,-0.02587890625,0.986328125,-0.18798828125,-5,-1,24,-0.30517578125,-0.06103515625,1.46484375,-2686,-2345,-1670,18254,231,-9503,100.272216796875,1.2689208984375,-52.2015380859375,349,3.49,0
74,91327,0.18,251303,180,1,-44,2003,-429,-0.021484375,0.97802734375,-0.20947265625,5,-3,5,0.30517578125,-0.18310546875,0.30517578125,377,-1934,4697,18641,199,31854,102.3980712890625,1.0931396484375,174.979248046875,354,3.54,0
75,91328,0.181,251304,181,2,-82,1922,731,-0.0400390625,0.9384765625,0.35693359375,-7,-9,16,-0.42724609375,-0.54931640625,0.9765625,338,-1066,-4040,12396,549,640,68.09326171875,3.0157470703125,3.515625,357,3.57,0
76,91329,0.187,251310,187,0,-51,2019,-379,-0.02490234375,0.98583984375,-0.18505859375,-11,-1,23,-0.67138671875,-0.06103515625,1.40380859375,-2655,-2344,-1648,18254,231,-9504,100.272216796875,1.2689208984375,-52.20703125,349,3.49,0
77,91330,0.188,251311,188,1,-44,2010,-433,-0.021484375,0.9814453125,-0.21142578125,7,-2,9,0.42724609375,-0.1220703125,0.54931640625,387,-1938,4724,18641,199,31855,102.3980712890625,1.0931396484375,174.9847412109375,354,3.54,0
78,91331,0.188,251311,188,2,-81,1922,730,-0.03955078125,0.9384765625,0.3564453125,-11,-9,18,-0.67138671875,-0.54931640625,1.0986328125,348,-1064,-4044,12396,549,640,68.09326171875,3.0157470703125,3.515625,357,3.57,0
79,91332,0.194,251317,194,0,-50,2015,-375,-0.0244140625,0.98388671875,-0.18310546875,-18,-3,23,-1.0986328125,-0.18310546875,1.40380859375,-2646,-2347,-1621,18254,231,-9504,100.272216796875,1.2689208984375,-52.20703125,349,3.49,0
80,91333,0.194,251317,194,1,-42,2009,-430,-0.0205078125,0.98095703125,-0.2099609375,0,-5,12,0.0,-0.30517578125,0.732421875,414,-1905,4729,18641,199,31855,102.3980712890625,1.0931396484375,174.9847412109375,354,3.54,0
81,91334,0.196,251319,196,2,-80,1921,732,-0.0390625,0.93798828125,0.357421875,-12,-11,19,-0.732421875,-0.67138671875,1.15966796875,357,-1052,-4050,12397,548,641,68.0987548828125,3.01025390625,3.5211181640625,357,3.57,0
82,91335,0.201,251324,201,0,-46,2009,-368,-0.0224609375,0.98095703125,-0.1796875,-30,-10,22,-1.8310546875,-0.6103515625,1.3427734375,-2629,-2354,-1601,18254,232,-9504,100.272216796875,1.2744140625,-52.20703125,348,3.48,0
83,91336,0.202,251325,202,1,-44,2003,-428,-0.021484375,0.97802734375,-0.208984375,-6,-7,16,-0.3662109375,-0.42724609375,0.9765625,408,-1923,4750,18641,199,31855,102.3980712890625,1.0931396484375,174.9847412109375,354,3.54,0
84,91337,0.203,251326,203,2,-82,1918,734,-0.0400390625,0.9365234375,0.3583984375,-9,-16,19,-0.54931640625,-0.9765625,1.15966796875,374,-1061,-4013,12397,548,641,68.0987548828125,3.01025390625,3.5211181640625,357,3.57,0
85,91338,0.208,251331,208,0,-51,2007,-362,-0.02490234375,0.97998046875,-0.1767578125,-34,-13,25,-2.0751953125,-0.79345703125,1.52587890625,-2641,-2340,-1610,18254,232,-9506,100.272216796875,1.2744140625,-52.218017578125,348,3.48,0
86,91339,0.208,251331,208,1,-44,1997,-430,-0.021484375,0.97509765625,-0.2099609375,-3,-9,19,-0.18310546875,-0.54931640625,1.15966796875,412,-1928,4728,18641,199,31856,102.3980712890625,1.0931396484375,174.990234375,354,3.54,0
87,91340,0.216,251339,216,2,-84,1915,736,-0.041015625,0.93505859375,0.359375,-5,-17,19,-0.30517578125,-1.03759765625,1.15966796875,347,-1067,-4005,12397,548,641,68.0987548828125,3.01025390625,3.5211181640625,357,3.57,0
88,91341,0.216,251339,216,0,-58,2003,-359,-0.0283203125,0.97802734375,-0.17529296875,-32,-12,25,-1.953125,-0.732421875,1.52587890625,-2649,-2351,-1636,18254,232,-9506,100.272216796875,1.2744140625,-52.218017578125,348,3.48,0
89,91342,0.216,251339,216,1,-48,1994,-428,-0.0234375,0.9736328125,-0.208984375,-3,-11,20,-0.18310546875,-0.67138671875,1.220703125,414,-1941,4682,18640,199,31856,102.392578125,1.0931396484375,174.990234375,355,3.55,0
90,91343,0.217,251340,217,2,-90,1910,735,-0.0439453125,0.9326171875,0.35888671875,-8,-23,20,-0.48828125,-1.40380859375,1.220703125,354,-1070,-4056,12397,548,642,68.0987548828125,3.01025390625,3.526611328125,357,3.57,0
91,91344,0.222,251345,222,0,-56,2002,-359,-0.02734375,0.9775390625,-0.17529296875,-32,-14,27,-1.953125,-0.8544921875,1.64794921875,-2650,-2333,-1619,18254,232,-9506,100.272216796875,1.2744140625,-52.218017578125,348,3.48,0
92,91345,0.223,251346,223,1,-48,1999,-428,-0.0234375,0.97607421875,-0.208984375,0,-9,21,0.0,-0.54931640625,1.28173828125,436,-1955,4658,18640,199,31856,102.392578125,1.0931396484375,174.990234375,355,3.55,0
93,91346,0.224,251347,224,2,-92,1909,735,-0.044921875,0.93212890625,0.35888671875,-12,-27,21,-0.732421875,-1.64794921875,1.28173828125,346,-1054,-4057,12397,548,642,68.0987548828125,3.01025390625,3.526611328125,357,3.57,0
94,91347,0.228,251351,228,0,-61,2001,-362,-0.02978515625,0.97705078125,-0.1767578125,-25,-10,28,-1.52587890625,-0.6103515625,1.708984375,-2640,-2318,-1598,18254,232,-9508,100.272216796875,1.2744140625,-52.22900390625,348,3.48,0
95,91348,0.23,251353,230,1,-61,1999,-424,-0.02978515625,0.97607421875,-0.20703125,-1,-9,22,-0.06103515625,-0.54931640625,1.3427734375,455,-1957,4645,18640,199,31856,102.392578125,1.0931396484375,174.990234375,355,3.55,0
96,91349,0.231,251354,231,2,-93,1908,736,-0.04541015625,0.931640625,0.359375,-14,-29,21,-0.8544921875,-1.77001953125,1.28173828125,325,-1082,-4081,12397,548,642,68.0987548828125,3.01025390625,3.526611328125,357,3.57,0
97,91350,0.236,251359,236,0,-64,2014,-375,-0.03125,0.9833984375,-0.18310546875,-13,-13,32,-0.79345703125,-0.79345703125,1.953125,-2663,-2303,-1599,18253,232,-9508,100.2667236328125,1.2744140625,-52.22900390625,348,3.48,0
98,91351,0.237,251360,237,1,-60,1998,-425,-0.029296875,0.9755859375,-0.20751953125,-6,-13,22,-0.3662109375,-0.79345703125,1.3427734375,457,-1949,4668,18640,200,31856,102.392578125,1.0986328125,174.990234375,355,3.55,0
99,91352,0.238,251361,238,2,-90,1907,739,-0.0439453125,0.93115234375,0.36083984375,-10,-32,21,-0.6103515625,-1.953125,1.28173828125,312,-1087,-4122,12398,547,642,68.104248046875,3.0047607421875,3.526611328125,357,3.57,0
100,91353,0.243,251366,243,0,-59,2023,-380,-0.02880859375,0.98779296875,-0.185546875,-11,-16,34,-0.67138671875,-0.9765625,2.0751953125,-2684,-2297,-1572,18253,232,-9508,100.2667236328125,1.2744140625,-52.22900390625,347,3.47,0
101,91354,0.243,251366,243,1,-64,1997,-422,-0.03125,0.97509765625,-0.2060546875,-6,-16,23,-0.3662109375,-0.9765625,1.40380859375,472,-1936,4702,18640,200,31855,102.392578125,1.0986328125,174.9847412109375,355,3.55,0
102,91355,0.245,251368,245,2,-87,1908,741,-0.04248046875,0.931640625,0.36181640625,-7,-32,20,-0.42724609375,-1.953125,1.220703125,318,-1105,-4114,12398,547,642,68.104248046875,3.0047607421875,3.526611328125,357,3.57,0
103,91356,0.249,251372,249,0,-59,2023,-380,-0.02880859375,0.98779296875,-0.185546875,-11,-16,34,-0.67138671875,-0.9765625,2.0751953125,-2684,-2297,-1572,18253,232,-9508,100.2667236328125,1.2744140625,-52.22900390625,347,3.47,0
104,91357,0.251,251374,251,1,-70,1997,-422,-0.0341796875,0.97509765625,-0.2060546875,-5,-15,22,-0.30517578125,-0.91552734375,1.3427734375,435,-1910,4712,18640,200,31855,102.392578125,1.0986328125,174.9847412109375,355,3.55,0
105,91358,0.252,251375,252,2,-78,1912,740,-0.0380859375,0.93359375,0.361328125,-6,-33,18,-0.3662109375,-2.01416015625,1.0986328125,320,-1089,-4029,12398,546,642,68.104248046875,2.999267578125,3.526611328125,357,3.57,0
106,91359,0.257,251380,257,0,-50,2035,-379,-0.0244140625,0.99365234375,-0.18505859375,-16,-23,32,-0.9765625,-1.40380859375,1.953125,-2736,-2298,-1585,18253,233,-9512,100.2667236328125,1.2799072265625,-52.2509765625,347,3.47,0
107,91360,0.258,251381,258,1,-71,1999,-421,-0.03466796875,0.97607421875,-0.20556640625,-2,-16,23,-0.1220703125,-0.9765625,1.40380859375,460,-1917,4691,18639,201,31855,102.3870849609375,1.1041259765625,174.9847412109375,355,3.55,0
108,91361,0.259,251382,259,2,-75,1916,738,-0.03662109375,0.935546875,0.3603515625,-8,-32,18,-0.48828125,-1.953125,1.0986328125,333,-1103,-4061,12398,546,642,68.104248046875,2.999267578125,3.526611328125,357,3.57,0
109,91362,0.264,251387,264,0,-48,2029,-377,-0.0234375,0.99072265625,-0.18408203125,-21,-25,32,-1.28173828125,-1.52587890625,1.953125,-2724,-2292,-1594,18253,233,-9512,100.2667236328125,1.2799072265625,-52.2509765625,347,3.47,0
110,91363,0.264,251387,264,1,-69,2001,-420,-0.03369140625,0.97705078125,-0.205078125,-2,-15,24,-0.1220703125,-0.91552734375,1.46484375,410,-1943,4692,18639,201,31855,102.3870849609375,1.1041259765625,174.9847412109375,355,3.55,0
111,91364,0.266,251389,266,2,-70,1917,736,-0.0341796875,0.93603515625,0.359375,-15,-35,18,-0.91552734375,-2.13623046875,1.0986328125,343,-1120,-4057,12398,546,642,68.104248046875,2.999267578125,3.526611328125,357,3.57,0
112,91365,0.271,251394,271,0,-46,2019,-369,-0.0224609375,0.98583984375,-0.18017578125,-28,-36,31,-1.708984375,-2.197265625,1.89208984375,-2727,-2302,-1607,18253,233,-9516,100.2667236328125,1.2799072265625,-52.27294921875,347,3.47,0
113,91366,0.271,251394,271,1,-70,2012,-416,-0.0341796875,0.982421875,-0.203125,-5,-14,24,-0.30517578125,-0.8544921875,1.46484375,396,-1956,4683,18639,201,31855,102.3870849609375,1.1041259765625,174.9847412109375,355,3.55,0
114,91367,0.272,251395,272,2,-62,1915,738,-0.0302734375,0.93505859375,0.3603515625,-17,-30,15,-1.03759765625,-1.8310546875,0.91552734375,326,-1085,-4027,12398,545,642,68.104248046875,2.9937744140625,3.526611328125,357,3.57,0
115,91368,0.28,251403,280,0,-47,2014,-368,-0.02294921875,0.9833984375,-0.1796875,-36,-48,35,-2.197265625,-2.9296875,2.13623046875,-2731,-2319,-1613,18251,231,-9519,100.2557373046875,1.2689208984375,-52.2894287109375,347,3.47,0
116,91369,0.28,251403,280,1,-65,2012,-417,-0.03173828125,0.982421875,-0.20361328125,-9,-21,24,-0.54931640625,-1.28173828125,1.46484375,398,-1971,4695,18638,202,31856,102.381591796875,1.109619140625,174.990234375,355,3.55,0
117,91370,0.28,251403,280,2,-60,1912,741,-0.029296875,0.93359375,0.36181640625,-12,-31,14,-0.732421875,-1.89208984375,0.8544921875,321,-1068,-3998,12398,545,642,68.104248046875,2.9937744140625,3.526611328125,357,3.57,0
118,91371,0.284,251407,284,0,-47,2014,-368,-0.02294921875,0.9833984375,-0.1796875,-36,-48,35,-2.197265625,-2.9296875,2.13623046875,-2731,-2319,-1613,18251,231,-9519,100.2557373046875,1.2689208984375,-52.2894287109375,347,3.47,0
119,91372,0.286,251409,286,1,-62,2001,-415,-0.0302734375,0.97705078125,-0.20263671875,-10,-19,25,-0.6103515625,-1.15966796875,1.52587890625,392,-1980,4701,18638,202,31856,102.381591796875,1.109619140625,174.990234375,355,3.55,0
120,91373,0.286,251409,286,2,-60,1908,742,-0.029296875,0.931640625,0.3623046875,0,-31,14,0.0,-1.89208984375,0.8544921875,321,-1068,-3996,12398,545,642,68.104248046875,2.9937744140625,3.526611328125,357,3.57,0
121,91374,0.292,251415,292,0,-58,1995,-362,-0.0283203125,0.97412109375,-0.1767578125,-50,-76,40,-3.0517578125,-4.638671875,2.44140625,-2700,-2307,-1601,18244,228,-9529,100.21728515625,1.25244140625,-52.3443603515625,347,3.47,0
122,91375,0.292,251415,292,1,-60,1996,-415,-0.029296875,0.974609375,-0.20263671875,-14,-20,25,-0.8544921875,-1.220703125,1.52587890625,396,-1968,4694,18638,202,31856,102.381591796875,1.109619140625,174.990234375,355,3.55,0
123,91376,0.294,251417,294,2,-63,1907,741,-0.03076171875,0.93115234375,0.36181640625,1,-31,14,0.06103515625,-1.89208984375,0.8544921875,337,-1072,-4001,12398,544,643,68.104248046875,2.98828125,3.5321044921875,357,3.57,0
124,91377,0.299,251422,299,0,-61,1989,-365,-0.02978515625,0.97119140625,-0.17822265625,-50,-75,41,-3.0517578125,-4.57763671875,2.50244140625,-2709,-2313,-1579,18242,226,-9533,100.206298828125,1.241455078125,-52.3663330078125,347,3.47,0
125,91378,0.3,251423,300,1,-54,1994,-425,-0.0263671875,0.9736328125,-0.20751953125,-13,-24,27,-0.79345703125,-1.46484375,1.64794921875,385,-1969,4725,18637,203,31857,102.3760986328125,1.1151123046875,174.9957275390625,355,3.55,0
126,91379,0.301,251424,301,2,-66,1908,737,-0.0322265625,0.931640625,0.35986328125,-2,-34,15,-0.1220703125,-2.0751953125,0.91552734375,354,-1070,-3996,12398,544,643,68.104248046875,2.98828125,3.5321044921875,357,3.57,0
127,91380,0.305,251428,305,0,-60,1989,-380,-0.029296875,0.97119140625,-0.185546875,-39,-71,49,-2.38037109375,-4.33349609375,2.99072265625,-2712,-2334,-1567,18238,223,-9540,100.184326171875,1.2249755859375,-52.40478515625,347,3.47,0
128,91381,0.317,251440,317,1,-57,1991,-430,-0.02783203125,0.97216796875,-0.2099609375,-11,-29,31,-0.67138671875,-1.77001953125,1.89208984375,390,-1960,4773,18637,203,31858,102.3760986328125,1.1151123046875,175.001220703125,356,3.56,0
129,91382,0.317,251440,317,2,-77,1910,733,-0.03759765625,0.9326171875,0.35791015625,-11,-39,19,-0.67138671875,-2.38037109375,1.15966796875,342,-1081,-4041,12398,543,644,68.104248046875,2.9827880859375,3.53759765625,357,3.57,0
130,91383,0.32,251443,320,0,-63,1991,-391,-0.03076171875,0.97216796875,-0.19091796875,-30,-65,51,-1.8310546875,-3.96728515625,3.11279296875,-2728,-2326,-1546,18237,221,-9543,100.1788330078125,1.2139892578125,-52.4212646484375,347,3.47,0
131,91384,0.321,251444,321,1,-48,1985,-435,-0.0234375,0.96923828125,-0.21240234375,-5,-38,35,-0.30517578125,-2.3193359375,2.13623046875,370,-1931,4789,18636,200,31853,102.37060546875,1.0986328125,174.9737548828125,356,3.56,0
132,91385,0.321,251444,321,2,-78,1912,734,-0.0380859375,0.93359375,0.3583984375,-12,-40,20,-0.732421875,-2.44140625,1.220703125,333,-1115,-4029,12398,543,644,68.104248046875,2.9827880859375,3.53759765625,357,3.57,0
133,91386,0.327,251450,327,0,-50,1998,-429,-0.0244140625,0.9755859375,-0.20947265625,-26,-27,38,-1.5869140625,-1.64794921875,2.3193359375,-2719,-2343,-1578,18233,216,-9548,100.1568603515625,1.1865234375,-52.44873046875,347,3.47,0
134,91387,0.329,251452,329,2,-76,1913,735,-0.037109375,0.93408203125,0.35888671875,-16,-40,20,-0.9765625,-2.44140625,1.220703125,333,-1118,-4007,12398,543,644,68.104248046875,2.9827880859375,3.53759765625,357,3.57,0
135,91388,0.334,251457,334,0,-39,2001,-436,-0.01904296875,0.97705078125,-0.212890625,-27,-13,35,-1.64794921875,-0.79345703125,2.13623046875,-2696,-2317,-1598,18232,215,-9548,100.1513671875,1.1810302734375,-52.44873046875,347,3.47,0
136,91389,0.335,251458,335,1,-39,1989,-427,-0.01904296875,0.97119140625,-0.20849609375,8,-15,33,0.48828125,-0.91552734375,2.01416015625,338,-1914,4799,18636,195,31850,102.37060546875,1.0711669921875,174.957275390625,356,3.56,0
137,91390,0.336,251459,336,2,-73,1915,736,-0.03564453125,0.93505859375,0.359375,-19,-38,21,-1.15966796875,-2.3193359375,1.28173828125,308,-1129,-4026,12398,542,644,68.104248046875,2.977294921875,3.53759765625,357,3.57,0
138,91391,0.341,251464,341,0,-20,1999,-437,-0.009765625,0.97607421875,-0.21337890625,-28,21,28,-1.708984375,1.28173828125,1.708984375,-2692,-2284,-1623,18230,212,-9545,100.140380859375,1.16455078125,-52.4322509765625,347,3.47,0
139,91392,0.342,251465,342,1,-38,1989,-425,-0.0185546875,0.97119140625,-0.20751953125,2,-12,36,0.1220703125,-0.732421875,2.197265625,322,-1910,4778,18636,193,31849,102.37060546875,1.0601806640625,174.9517822265625,356,3.56,0
140,91393,0.343,251466,343,2,-65,1917,738,-0.03173828125,0.93603515625,0.3603515625,-17,-35,23,-1.03759765625,-2.13623046875,1.40380859375,307,-1097,-4030,12398,542,643,68.104248046875,2.977294921875,3.5321044921875,357,3.57,0
141,91394,0.348,251471,348,0,-16,1993,-437,-0.0078125,0.97314453125,-0.21337890625,-31,34,28,-1.89208984375,2.0751953125,1.708984375,-2685,-2302,-1642,18229,210,-9542,100.1348876953125,1.153564453125,-52.415771484375,347,3.47,0
142,91395,0.349,251472,349,1,-37,1992,-426,-0.01806640625,0.97265625,-0.2080078125,-6,-19,34,-0.3662109375,-1.15966796875,2.0751953125,332,-1916,4784,18635,191,31848,102.3651123046875,1.0491943359375,174.9462890625,356,3.56,0
143,91396,0.35,251473,350,2,-61,1918,738,-0.02978515625,0.9365234375,0.3603515625,-15,-36,25,-0.91552734375,-2.197265625,1.52587890625,305,-1095,-4037,12398,542,643,68.104248046875,2.977294921875,3.5321044921875,357,3.57,0
144,91397,0.355,251478,355,0,-11,1988,-435,-0.00537109375,0.970703125,-0.21240234375,-30,42,28,-1.8310546875,2.5634765625,1.708984375,-2685,-2305,-1640,18227,208,-9539,100.1239013671875,1.142578125,-52.3992919921875,347,3.47,0
145,91398,0.356,251479,356,1,-50,1991,-426,-0.0244140625,0.97216796875,-0.2080078125,-14,-30,36,-0.8544921875,-1.8310546875,2.197265625,368,-1909,4800,18633,188,31845,102.3541259765625,1.03271484375,174.9298095703125,356,3.56,0
146,91399,0.357,251480,357,2,-56,1918,737,-0.02734375,0.9365234375,0.35986328125,-15,-34,27,-0.91552734375,-2.0751953125,1.64794921875,299,-1086,-4041,12399,541,644,68.1097412109375,2.9718017578125,3.53759765625,357,3.57,0
147,91400,0.362,251485,362,0,-14,1985,-428,-0.0068359375,0.96923828125,-0.208984375,-31,36,35,-1.89208984375,2.197265625,2.13623046875,-2705,-2300,-1682,18225,204,-9534,100.1129150390625,1.12060546875,-52.371826171875,347,3.47,0
148,91401,0.363,251486,363,1,-54,1990,-420,-0.0263671875,0.9716796875,-0.205078125,-14,-33,34,-0.8544921875,-2.01416015625,2.0751953125,390,-1881,4801,18632,187,31843,102.3486328125,1.0272216796875,174.9188232421875,356,3.56,0
149,91402,0.364,251487,364,2,-48,1919,733,-0.0234375,0.93701171875,0.35791015625,-25,-28,28,-1.52587890625,-1.708984375,1.708984375,292,-1084,-4049,12399,541,643,68.1097412109375,2.9718017578125,3.5321044921875,357,3.57,0
150,91403,0.369,251492,369,0,-12,1989,-425,-0.005859375,0.97119140625,-0.20751953125,-26,27,40,-1.5869140625,1.64794921875,2.44140625,-2709,-2293,-1703,18224,202,-9533,100.107421875,1.109619140625,-52.3663330078125,347,3.47,0
151,91404,0.375,251498,375,1,-56,1986,-421,-0.02734375,0.9697265625,-0.20556640625,-9,-28,33,-0.54931640625,-1.708984375,2.01416015625,404,-1893,4726,18631,184,31840,102.3431396484375,1.0107421875,174.90234375,356,3.56,0
152,91405,0.375,251498,375,2,-47,1917,733,-0.02294921875,0.93603515625,0.35791015625,-30,-25,28,-1.8310546875,-1.52587890625,1.708984375,304,-1090,-4073,12399,541,643,68.1097412109375,2.9718017578125,3.5321044921875,357,3.57,0
153,91406,0.375,251498,375,0,-12,1989,-425,-0.005859375,0.97119140625,-0.20751953125,-26,27,40,-1.5869140625,1.64794921875,2.44140625,-2709,-2293,-1703,18224,202,-9533,100.107421875,1.109619140625,-52.3663330078125,347,3.47,0
154,91407,0.377,251500,377,1,-44,1983,-422,-0.021484375,0.96826171875,-0.2060546875,-6,-31,33,-0.3662109375,-1.89208984375,2.01416015625,410,-1895,4722,18630,183,31838,102.337646484375,1.0052490234375,174.891357421875,356,3.56,0
155,91408,0.377,251500,377,2,-49,1910,739,-0.02392578125,0.9326171875,0.36083984375,-23,-23,30,-1.40380859375,-1.40380859375,1.8310546875,312,-1106,-4066,12399,539,643,68.1097412109375,2.9608154296875,3.5321044921875,357,3.57,0
156,91409,0.383,251506,383,0,-25,1999,-418,-0.01220703125,0.97607421875,-0.2041015625,-26,-11,48,-1.5869140625,-0.67138671875,2.9296875,-2671,-2289,-1725,18220,195,-9532,100.08544921875,1.0711669921875,-52.36083984375,348,3.48,0
157,91410,0.384,251507,384,1,-33,1975,-421,-0.01611328125,0.96435546875,-0.20556640625,-8,-27,35,-0.48828125,-1.64794921875,2.13623046875,378,-1923,4732,18630,181,31837,102.337646484375,0.9942626953125,174.8858642578125,356,3.56,0
158,91411,0.385,251508,385,2,-45,1907,743,-0.02197265625,0.93115234375,0.36279296875,-19,-20,31,-1.15966796875,-1.220703125,1.89208984375,317,-1097,-4049,12399,539,643,68.1097412109375,2.9608154296875,3.5321044921875,357,3.57,0
159,91412,0.39,251513,390,0,-29,2002,-416,-0.01416015625,0.9775390625,-0.203125,-24,-19,51,-1.46484375,-1.15966796875,3.11279296875,-2697,-2281,-1775,18219,193,-9533,100.0799560546875,1.0601806640625,-52.3663330078125,348,3.48,0
160,91413,0.391,251514,391,1,-22,1965,-415,-0.0107421875,0.95947265625,-0.20263671875,3,-12,37,0.18310546875,-0.732421875,2.25830078125,387,-1943,4724,18629,177,31835,102.3321533203125,0.9722900390625,174.8748779296875,356,3.56,0
161,91414,0.392,251515,392,2,-39,1905,744,-0.01904296875,0.93017578125,0.36328125,-17,-14,29,-1.03759765625,-0.8544921875,1.77001953125,305,-1098,-4043,12399,539,643,68.1097412109375,2.9608154296875,3.5321044921875,357,3.57,0
162,91415,0.397,251520,397,0,-27,2007,-413,-0.01318359375,0.97998046875,-0.20166015625,-17,-37,52,-1.03759765625,-2.25830078125,3.173828125,-2711,-2290,-1750,18218,188,-9537,100.074462890625,1.03271484375,-52.3883056640625,349,3.49,0
163,91416,0.398,251521,398,1,-24,1966,-412,-0.01171875,0.9599609375,-0.201171875,5,-1,37,0.30517578125,-0.06103515625,2.25830078125,383,-1957,4721,18630,175,31835,102.337646484375,0.9613037109375,174.8748779296875,357,3.57,0
164,91417,0.398,251521,398,2,-29,1906,742,-0.01416015625,0.9306640625,0.3623046875,-26,-4,28,-1.5869140625,-0.244140625,1.708984375,287,-1069,-4029,12399,538,644,68.1097412109375,2.955322265625,3.53759765625,356,3.56,0
165,91418,0.404,251527,404,0,-25,2013,-407,-0.01220703125,0.98291015625,-0.19873046875,-16,-46,56,-0.9765625,-2.8076171875,3.41796875,-2709,-2282,-1743,18217,186,-9539,100.0689697265625,1.021728515625,-52.3992919921875,349,3.49,0
166,91419,0.404,251527,404,1,-23,1960,-417,-0.01123046875,0.95703125,-0.20361328125,15,9,34,0.91552734375,0.54931640625,2.0751953125,387,-1957,4719,18631,171,31836,102.3431396484375,0.9393310546875,174.88037109375,357,3.57,0
167,91420,0.406,251529,406,2,-25,1909,741,-0.01220703125,0.93212890625,0.36181640625,-31,2,27,-1.89208984375,0.1220703125,1.64794921875,286,-1062,-4004,12399,538,643,68.1097412109375,2.955322265625,3.5321044921875,356,3.56,0
168,91421,0.411,251534,411,0,-25,2013,-407,-0.01220703125,0.98291015625,-0.19873046875,-16,-46,56,-0.9765625,-2.8076171875,3.41796875,-2709,-2282,-1743,18217,186,-9539,100.0689697265625,1.021728515625,-52.3992919921875,349,3.49,0
169,91422,0.412,251535,412,1,-23,1966,-423,-0.01123046875,0.9599609375,-0.20654296875,12,3,37,0.732421875,0.18310546875,2.25830078125,404,-1941,4746,18631,169,31836,102.3431396484375,0.9283447265625,174.88037109375,357,3.57,0
170,91423,0.413,251536,413,2,-20,1913,743,-0.009765625,0.93408203125,0.36279296875,-28,13,27,-1.708984375,0.79345703125,1.64794921875,305,-1045,-3945,12399,536,644,68.1097412109375,2.9443359375,3.53759765625,356,3.56,0
171,91424,0.418,251541,418,0,-15,2029,-395,-0.00732421875,0.99072265625,-0.19287109375,-30,-74,53,-1.8310546875,-4.5166015625,3.23486328125,-2712,-2313,-1665,18214,180,-9550,100.052490234375,0.98876953125,-52.459716796875,350,3.5,0
172,91425,0.419,251542,419,1,-29,1966,-421,-0.01416015625,0.9599609375,-0.20556640625,10,-2,34,0.6103515625,-0.1220703125,2.0751953125,386,-1934,4718,18631,167,31836,102.3431396484375,0.9173583984375,174.88037109375,357,3.57,0
173,91426,0.42,251543,420,2,-16,1915,743,-0.0078125,0.93505859375,0.36279296875,-25,20,28,-1.52587890625,1.220703125,1.708984375,300,-1038,-3958,12399,536,644,68.1097412109375,2.9443359375,3.53759765625,356,3.56,0
174,91427,0.425,251548,425,0,-9,2031,-392,-0.00439453125,0.99169921875,-0.19140625,-36,-71,51,-2.197265625,-4.33349609375,3.11279296875,-2699,-2306,-1636,18212,178,-9553,100.04150390625,0.977783203125,-52.4761962890625,350,3.5,0
175,91428,0.426,251549,426,1,-30,1971,-421,-0.0146484375,0.96240234375,-0.20556640625,9,0,36,0.54931640625,0.0,2.197265625,349,-1913,4663,18632,164,31836,102.3486328125,0.90087890625,174.88037109375,357,3.57,0
176,91429,0.427,251550,427,2,-10,1916,741,-0.0048828125,0.935546875,0.36181640625,-24,27,26,-1.46484375,1.64794921875,1.5869140625,298,-1058,-3940,12399,536,643,68.1097412109375,2.9443359375,3.5321044921875,356,3.56,0
177,91430,0.432,251555,432,0,-1,2030,-386,-0.00048828125,0.9912109375,-0.1884765625,-44,-53,44,-2.685546875,-3.23486328125,2.685546875,-2690,-2301,-1647,18208,175,-9558,100.01953125,0.9613037109375,-52.503662109375,350,3.5,0
178,91431,0.433,251556,433,1,-32,1972,-423,-0.015625,0.962890625,-0.20654296875,16,7,35,0.9765625,0.42724609375,2.13623046875,358,-1927,4666,18633,162,31836,102.3541259765625,0.889892578125,174.88037109375,357,3.57,0
179,91432,0.438,251561,438,2,-2,1916,737,-0.0009765625,0.935546875,0.35986328125,-32,42,24,-1.953125,2.5634765625,1.46484375,291,-1075,-3964,12399,536,644,68.1097412109375,2.9443359375,3.53759765625,356,3.56,0
180,91433,0.439,251562,439,0,0,2026,-377,0.0,0.9892578125,-0.18408203125,-52,-41,42,-3.173828125,-2.50244140625,2.5634765625,-2679,-2290,-1638,18205,173,-9560,100.0030517578125,0.9503173828125,-52.5146484375,350,3.5,0
181,91434,0.44,251563,440,1,-38,1983,-431,-0.0185546875,0.96826171875,-0.21044921875,29,22,30,1.77001953125,1.3427734375,1.8310546875,378,-1944,4672,18630,164,31837,102.337646484375,0.90087890625,174.8858642578125,357,3.57,0
182,91435,0.441,251564,441,2,0,1915,736,0.0,0.93505859375,0.359375,-35,50,22,-2.13623046875,3.0517578125,1.3427734375,289,-1068,-3938,12397,536,647,68.0987548828125,2.9443359375,3.5540771484375,356,3.56,0
183,91436,0.446,251569,446,0,0,2026,-377,0.0,0.9892578125,-0.18408203125,-52,-41,42,-3.173828125,-2.50244140625,2.5634765625,-2679,-2290,-1638,18205,173,-9560,100.0030517578125,0.9503173828125,-52.5146484375,350,3.5,0
184,91437,0.447,251570,447,1,-31,1993,-427,-0.01513671875,0.97314453125,-0.20849609375,33,26,29,2.01416015625,1.5869140625,1.77001953125,407,-1957,4718,18630,164,31838,102.337646484375,0.90087890625,174.891357421875,357,3.57,0
185,91438,0.448,251571,448,2,-6,1914,739,-0.0029296875,0.9345703125,0.36083984375,-41,63,23,-2.50244140625,3.84521484375,1.40380859375,275,-1047,-3955,12393,537,654,68.0767822265625,2.9498291015625,3.592529296875,356,3.56,0
186,91439,0.452,251575,452,0,-7,2002,-369,-0.00341796875,0.9775390625,-0.18017578125,-55,2,41,-3.35693359375,0.1220703125,2.50244140625,-2666,-2294,-1608,18197,167,-9560,99.9591064453125,0.9173583984375,-52.5146484375,350,3.5,0
187,91440,0.454,251577,454,1,-29,2004,-429,-0.01416015625,0.978515625,-0.20947265625,33,29,28,2.01416015625,1.77001953125,1.708984375,366,-1931,4730,18630,164,31838,102.337646484375,0.90087890625,174.891357421875,357,3.57,0
188,91441,0.455,251578,455,2,-11,1914,744,-0.00537109375,0.9345703125,0.36328125,-45,65,26,-2.74658203125,3.96728515625,1.5869140625,258,-1062,-3943,12391,538,658,68.0657958984375,2.955322265625,3.614501953125,356,3.56,0
189,91442,0.46,251583,460,0,-12,1998,-374,-0.005859375,0.9755859375,-0.1826171875,-51,16,42,-3.11279296875,0.9765625,2.5634765625,-2679,-2301,-1627,18194,165,-9558,99.942626953125,0.9063720703125,-52.503662109375,350,3.5,0
190,91443,0.46,251583,460,1,-32,2016,-427,-0.015625,0.984375,-0.20849609375,24,31,26,1.46484375,1.89208984375,1.5869140625,329,-1931,4702,18629,164,31838,102.3321533203125,0.90087890625,174.891357421875,357,3.57,0
191,91444,0.462,251585,462,2,-15,1913,748,-0.00732421875,0.93408203125,0.365234375,-45,70,27,-2.74658203125,4.2724609375,1.64794921875,256,-1075,-3921,12389,539,662,68.0548095703125,2.9608154296875,3.636474609375,356,3.56,0
192,91445,0.471,251594,471,0,-31,1994,-375,-0.01513671875,0.9736328125,-0.18310546875,-48,38,40,-2.9296875,2.3193359375,2.44140625,-2709,-2309,-1668,18190,160,-9553,99.920654296875,0.87890625,-52.4761962890625,351,3.51,0
193,91446,0.471,251594,471,1,-32,2009,-423,-0.015625,0.98095703125,-0.20654296875,17,35,25,1.03759765625,2.13623046875,1.52587890625,339,-1941,4683,18629,164,31840,102.3321533203125,0.90087890625,174.90234375,357,3.57,0
194,91447,0.471,251594,471,2,-25,1907,751,-0.01220703125,0.93115234375,0.36669921875,-40,77,31,-2.44140625,4.69970703125,1.89208984375,255,-1061,-3926,12386,539,671,68.038330078125,2.9608154296875,3.6859130859375,356,3.56,0
195,91448,0.474,251597,474,0,-38,1989,-372,-0.0185546875,0.97119140625,-0.181640625,-49,44,44,-2.99072265625,2.685546875,2.685546875,-2715,-2339,-1643,18187,158,-9550,99.9041748046875,0.867919921875,-52.459716796875,350,3.5,0
196,91449,0.475,251598,475,1,-30,2003,-421,-0.0146484375,0.97802734375,-0.20556640625,14,42,30,0.8544921875,2.5634765625,1.8310546875,328,-1924,4770,18629,164,31840,102.3321533203125,0.90087890625,174.90234375,357,3.57,0
197,91450,0.476,251599,476,2,-31,1903,751,-0.01513671875,0.92919921875,0.36669921875,-35,79,35,-2.13623046875,4.82177734375,2.13623046875,258,-1075,-3929,12384,540,676,68.02734375,2.96630859375,3.71337890625,356,3.56,0
198,91451,0.481,251604,481,0,-36,1995,-376,-0.017578125,0.97412109375,-0.18359375,-45,54,45,-2.74658203125,3.2958984375,2.74658203125,-2714,-2339,-1673,18185,155,-9547,99.8931884765625,0.8514404296875,-52.4432373046875,350,3.5,0
199,91452,0.482,251605,482,1,-23,1996,-413,-0.01123046875,0.974609375,-0.20166015625,17,62,34,1.03759765625,3.7841796875,2.0751953125,330,-1939,4752,18630,160,31847,102.337646484375,0.87890625,174.9407958984375,357,3.57,0
200,91453,0.483,251606,483,2,-35,1901,750,-0.01708984375,0.92822265625,0.3662109375,-32,79,39,-1.953125,4.82177734375,2.38037109375,237,-1056,-3943,12383,540,681,68.0218505859375,2.96630859375,3.7408447265625,355,3.55,0
201,91454,0.488,251611,488,0,-31,2011,-379,-0.01513671875,0.98193359375,-0.18505859375,-46,67,48,-2.8076171875,4.08935546875,2.9296875,-2741,-2332,-1691,18181,149,-9539,99.8712158203125,0.8184814453125,-52.3992919921875,350,3.5,0
202,91455,0.489,251612,489,1,-22,1994,-413,-0.0107421875,0.9736328125,-0.20166015625,16,71,35,0.9765625,4.33349609375,2.13623046875,307,-1936,4744,18631,157,31850,102.3431396484375,0.8624267578125,174.957275390625,357,3.57,0
203,91456,0.49,251613,490,2,-40,1903,749,-0.01953125,0.92919921875,0.36572265625,-34,82,44,-2.0751953125,5.0048828125,2.685546875,261,-1068,-3963,12380,540,691,68.00537109375,2.96630859375,3.7957763671875,355,3.55,0
204,91457,0.495,251618,495,0,-29,2018,-383,-0.01416015625,0.9853515625,-0.18701171875,-43,73,48,-2.62451171875,4.45556640625,2.9296875,-2735,-2336,-1695,18179,146,-9534,99.8602294921875,0.802001953125,-52.371826171875,350,3.5,0
205,91458,0.496,251619,496,1,-23,1997,-407,-0.01123046875,0.97509765625,-0.19873046875,9,84,40,0.54931640625,5.126953125,2.44140625,314,-1951,4686,18632,151,31859,102.3486328125,0.8294677734375,175.0067138671875,357,3.57,0
206,91459,0.497,251620,497,2,-41,1906,749,-0.02001953125,0.9306640625,0.36572265625,-36,81,45,-2.197265625,4.94384765625,2.74658203125,263,-1056,-3977,12379,540,696,67.9998779296875,2.96630859375,3.8232421875,356,3.56,0
207,91460,0.502,251625,502,0,-17,2039,-379,-0.00830078125,0.99560546875,-0.18505859375,-49,86,53,-2.99072265625,5.2490234375,3.23486328125,-2732,-2302,-1693,18174,139,-9525,99.832763671875,0.7635498046875,-52.3223876953125,350,3.5,0
208,91461,0.503,251626,503,1,-27,1994,-405,-0.01318359375,0.9736328125,-0.19775390625,14,86,39,0.8544921875,5.2490234375,2.38037109375,319,-1956,4684,18632,147,31864,102.3486328125,0.8074951171875,175.0341796875,357,3.57,0
209,91462,0.503,251626,503,2,-41,1909,748,-0.02001953125,0.93212890625,0.365234375,-32,80,46,-1.953125,4.8828125,2.8076171875,248,-1081,-3981,12376,539,706,67.9833984375,2.9608154296875,3.878173828125,356,3.56,0
210,91463,0.509,251632,509,0,-16,2046,-381,-0.0078125,0.9990234375,-0.18603515625,-53,84,50,-3.23486328125,5.126953125,3.0517578125,-2715,-2306,-1691,18171,136,-9520,99.8162841796875,0.7470703125,-52.294921875,350,3.5,0
211,91464,0.51,251633,510,1,-36,1990,-407,-0.017578125,0.9716796875,-0.19873046875,17,89,39,1.03759765625,5.43212890625,2.38037109375,323,-1960,4682,18633,144,31869,102.3541259765625,0.791015625,175.0616455078125,357,3.57,0
212,91465,0.511,251634,511,2,-40,1910,748,-0.01953125,0.9326171875,0.365234375,-28,82,47,-1.708984375,5.0048828125,2.86865234375,247,-1082,-4035,12375,539,711,67.9779052734375,2.9608154296875,3.9056396484375,356,3.56,0
213,91466,0.516,251639,516,0,-12,2043,-376,-0.005859375,0.99755859375,-0.18359375,-62,84,51,-3.7841796875,5.126953125,3.11279296875,-2747,-2335,-1679,18168,132,-9515,99.7998046875,0.72509765625,-52.2674560546875,350,3.5,0
214,91467,0.516,251639,516,1,-54,1995,-420,-0.0263671875,0.97412109375,-0.205078125,24,92,41,1.46484375,5.615234375,2.50244140625,330,-1966,4679,18636,138,31879,102.37060546875,0.758056640625,175.1165771484375,357,3.57,0
215,91468,0.518,251641,518,2,-38,1909,748,-0.0185546875,0.93212890625,0.365234375,-24,81,47,-1.46484375,4.94384765625,2.86865234375,254,-1105,-4021,12374,539,716,67.972412109375,2.9608154296875,3.93310546875,357,3.57,0
216,91469,0.523,251646,523,0,-22,2038,-371,-0.0107421875,0.9951171875,-0.18115234375,-73,68,48,-4.45556640625,4.150390625,2.9296875,-2732,-2346,-1681,18161,126,-9507,99.7613525390625,0.692138671875,-52.2235107421875,350,3.5,0
217,91470,0.524,251647,524,1,-58,1992,-418,-0.0283203125,0.97265625,-0.2041015625,25,89,42,1.52587890625,5.43212890625,2.5634765625,333,-1969,4677,18637,134,31883,102.3760986328125,0.736083984375,175.1385498046875,357,3.57,0
218,91471,0.525,251648,525,2,-31,1906,749,-0.01513671875,0.9306640625,0.36572265625,-18,85,39,-1.0986328125,5.18798828125,2.38037109375,266,-1103,-3980,12373,539,726,67.9669189453125,2.9608154296875,3.988037109375,357,3.57,0
219,91472,0.533,251656,533,0,-31,2027,-369,-0.01513671875,0.98974609375,-0.18017578125,-77,57,46,-4.69970703125,3.47900390625,2.8076171875,-2725,-2363,-1679,18157,124,-9504,99.7393798828125,0.68115234375,-52.20703125,350,3.5,0
220,91473,0.533,251656,533,1,-65,1989,-424,-0.03173828125,0.97119140625,-0.20703125,20,82,42,1.220703125,5.0048828125,2.5634765625,303,-1974,4704,18639,128,31892,102.3870849609375,0.703125,175.18798828125,357,3.57,0
221,91474,0.533,251656,533,2,-30,1905,750,-0.0146484375,0.93017578125,0.3662109375,-15,87,35,-0.91552734375,5.31005859375,2.13623046875,281,-1084,-4016,12373,540,731,67.9669189453125,2.96630859375,4.0155029296875,357,3.57,0
222,91475,0.536,251659,536,0,-31,2027,-369,-0.01513671875,0.98974609375,-0.18017578125,-77,57,46,-4.69970703125,3.47900390625,2.8076171875,-2725,-2363,-1679,18157,124,-9504,99.7393798828125,0.68115234375,-52.20703125,350,3.5,0
223,91476,0.538,251661,538,1,-63,1986,-426,-0.03076171875,0.9697265625,-0.2080078125,18,76,43,1.0986328125,4.638671875,2.62451171875,276,-1982,4699,18640,124,31896,102.392578125,0.68115234375,175.2099609375,357,3.57,0
224,91477,0.539,251662,539,2,-31,1906,749,-0.01513671875,0.9306640625,0.36572265625,-12,85,32,-0.732421875,5.18798828125,1.953125,278,-1096,-4030,12372,541,741,67.96142578125,2.9718017578125,4.0704345703125,357,3.57,0
225,91478,0.544,251667,544,0,-66,2013,-360,-0.0322265625,0.98291015625,-0.17578125,-75,38,42,-4.57763671875,2.3193359375,2.5634765625,-2713,-2335,-1683,18145,116,-9496,99.6734619140625,0.63720703125,-52.1630859375,350,3.5,0
226,91479,0.545,251668,545,1,-64,1981,-428,-0.03125,0.96728515625,-0.208984375,24,68,46,1.46484375,4.150390625,2.8076171875,314,-1982,4721,18641,121,31899,102.3980712890625,0.6646728515625,175.2264404296875,357,3.57,0
227,91480,0.546,251669,546,2,-32,1908,748,-0.015625,0.931640625,0.365234375,-15,87,31,-0.91552734375,5.31005859375,1.89208984375,279,-1085,-4028,12372,542,746,67.96142578125,2.977294921875,4.097900390625,357,3.57,0
228,91481,0.551,251674,551,0,-74,2014,-358,-0.0361328125,0.9833984375,-0.1748046875,-75,32,40,-4.57763671875,1.953125,2.44140625,-2730,-2315,-1671,18141,114,-9493,99.6514892578125,0.626220703125,-52.1466064453125,350,3.5,0
229,91482,0.552,251675,552,1,-64,1974,-433,-0.03125,0.9638671875,-0.21142578125,26,49,48,1.5869140625,2.99072265625,2.9296875,308,-1979,4716,18643,115,31904,102.4090576171875,0.6317138671875,175.25390625,357,3.57,0
230,91483,0.553,251676,553,2,-33,1911,746,-0.01611328125,0.93310546875,0.3642578125,-21,87,30,-1.28173828125,5.31005859375,1.8310546875,288,-1086,-4021,12371,542,751,67.9559326171875,2.977294921875,4.1253662109375,357,3.57,0
231,91484,0.558,251681,558,0,-84,2020,-354,-0.041015625,0.986328125,-0.1728515625,-64,38,45,-3.90625,2.3193359375,2.74658203125,-2745,-2271,-1676,18135,109,-9488,99.6185302734375,0.5987548828125,-52.119140625,350,3.5,0
232,91485,0.559,251682,559,1,-61,1976,-433,-0.02978515625,0.96484375,-0.21142578125,27,45,51,1.64794921875,2.74658203125,3.11279296875,310,-1980,4732,18644,111,31906,102.41455078125,0.6097412109375,175.264892578125,357,3.57,0
233,91486,0.559,251682,559,2,-32,1915,741,-0.015625,0.93505859375,0.36181640625,-27,84,27,-1.64794921875,5.126953125,1.64794921875,305,-1088,-4008,12369,544,761,67.9449462890625,2.98828125,4.1802978515625,357,3.57,0
234,91487,0.565,251688,565,0,-91,2027,-346,-0.04443359375,0.98974609375,-0.1689453125,-62,41,49,-3.7841796875,2.50244140625,2.99072265625,-2745,-2247,-1690,18132,106,-9486,99.60205078125,0.582275390625,-52.108154296875,350,3.5,0
235,91488,0.565,251688,565,1,-56,1982,-437,-0.02734375,0.9677734375,-0.21337890625,26,44,58,1.5869140625,2.685546875,3.5400390625,305,-1981,4734,18647,104,31911,102.4310302734375,0.5712890625,175.2923583984375,357,3.57,0
236,91489,0.567,251690,567,2,-31,1916,738,-0.01513671875,0.935546875,0.3603515625,-28,88,26,-1.708984375,5.37109375,1.5869140625,312,-1088,-4003,12368,545,766,67.939453125,2.9937744140625,4.207763671875,358,3.58,0
237,91490,0.572,251695,572,0,-91,2027,-346,-0.04443359375,0.98974609375,-0.1689453125,-62,41,49,-3.7841796875,2.50244140625,2.99072265625,-2745,-2247,-1690,18132,106,-9486,99.60205078125,0.582275390625,-52.108154296875,350,3.5,0
238,91491,0.573,251696,573,1,-58,1990,-437,-0.0283203125,0.9716796875,-0.21337890625,27,42,58,1.64794921875,2.5634765625,3.5400390625,301,-1957,4731,18648,100,31912,102.4365234375,0.54931640625,175.2978515625,357,3.57,0
239,91492,0.574,251697,574,2,-29,1915,732,-0.01416015625,0.93505859375,0.357421875,-36,85,23,-2.197265625,5.18798828125,1.40380859375,333,-1057,-3929,12365,547,775,67.9229736328125,3.0047607421875,4.2572021484375,358,3.58,0
240,91493,0.579,251702,579,0,-104,2023,-336,-0.05078125,0.98779296875,-0.1640625,-76,15,45,-4.638671875,0.91552734375,2.74658203125,-2741,-2265,-1646,18121,99,-9481,99.5416259765625,0.5438232421875,-52.0806884765625,350,3.5,0
241,91494,0.58,251703,580,1,-60,1987,-430,-0.029296875,0.97021484375,-0.2099609375,24,39,61,1.46484375,2.38037109375,3.72314453125,286,-1964,4734,18649,96,31914,102.4420166015625,0.52734375,175.308837890625,357,3.57,0
242,91495,0.581,251704,581,2,-30,1911,731,-0.0146484375,0.93310546875,0.35693359375,-33,83,22,-2.01416015625,5.06591796875,1.3427734375,336,-1058,-3931,12363,549,780,67.9119873046875,3.0157470703125,4.28466796875,358,3.58,0
243,91496,0.586,251709,586,0,-97,2019,-331,-0.04736328125,0.98583984375,-0.16162109375,-83,7,43,-5.06591796875,0.42724609375,2.62451171875,-2747,-2277,-1625,18117,96,-9480,99.5196533203125,0.52734375,-52.0751953125,350,3.5,0
244,91497,0.587,251710,587,1,-51,1983,-426,-0.02490234375,0.96826171875,-0.2080078125,24,39,68,1.46484375,2.38037109375,4.150390625,306,-1961,4740,18651,88,31917,102.4530029296875,0.4833984375,175.3253173828125,357,3.57,0
245,91498,0.588,251711,588,2,-31,1908,731,-0.01513671875,0.931640625,0.35693359375,-28,85,20,-1.708984375,5.18798828125,1.220703125,355,-1047,-3972,12362,550,785,67.906494140625,3.021240234375,4.3121337890625,358,3.58,0
246,91499,0.597,251720,597,0,-75,2026,-317,-0.03662109375,0.9892578125,-0.15478515625,-89,11,48,-5.43212890625,0.67138671875,2.9296875,-2768,-2298,-1608,18108,91,-9478,99.47021484375,0.4998779296875,-52.064208984375,350,3.5,0
247,91500,0.597,251720,597,1,-50,1979,-428,-0.0244140625,0.96630859375,-0.208984375,18,38,73,1.0986328125,2.3193359375,4.45556640625,305,-1963,4754,18652,84,31919,102.45849609375,0.46142578125,175.3363037109375,357,3.57,0
248,91501,0.598,251721,598,2,-38,1904,733,-0.0185546875,0.9296875,0.35791015625,-31,80,20,-1.89208984375,4.8828125,1.220703125,340,-1064,-3961,12360,552,794,67.8955078125,3.0322265625,4.361572265625,358,3.58,0
249,91502,0.6,251723,600,0,-66,2027,-311,-0.0322265625,0.98974609375,-0.15185546875,-96,18,53,-5.859375,1.0986328125,3.23486328125,-2760,-2281,-1622,18102,88,-9477,99.437255859375,0.4833984375,-52.0587158203125,350,3.5,0
250,91503,0.601,251724,601,1,-50,1974,-425,-0.0244140625,0.9638671875,-0.20751953125,12,33,77,0.732421875,2.01416015625,4.69970703125,288,-1962,4716,18653,79,31920,102.4639892578125,0.4339599609375,175.341796875,356,3.56,0
251,91504,0.602,251725,602,2,-39,1902,735,-0.01904296875,0.9287109375,0.35888671875,-34,76,20,-2.0751953125,4.638671875,1.220703125,341,-1063,-3969,12358,553,798,67.884521484375,3.0377197265625,4.383544921875,358,3.58,0
252,91505,0.607,251730,607,0,-66,2027,-311,-0.0322265625,0.98974609375,-0.15185546875,-96,18,53,-5.859375,1.0986328125,3.23486328125,-2760,-2281,-1622,18102,88,-9477,99.437255859375,0.4833984375,-52.0587158203125,350,3.5,0
253,91506,0.608,251731,608,1,-51,1976,-420,-0.02490234375,0.96484375,-0.205078125,25,38,77,1.52587890625,2.3193359375,4.69970703125,245,-1975,4706,18655,70,31923,102.4749755859375,0.384521484375,175.3582763671875,356,3.56,0
254,91507,0.609,251732,609,2,-35,1899,742,-0.01708984375,0.92724609375,0.3623046875,-29,73,17,-1.77001953125,4.45556640625,1.03759765625,305,-1079,-3959,12356,556,806,67.87353515625,3.05419921875,4.427490234375,357,3.57,0
255,91508,0.614,251737,614,0,-58,2025,-319,-0.0283203125,0.98876953125,-0.15576171875,-131,25,57,-7.99560546875,1.52587890625,3.47900390625,-2756,-2312,-1702,18083,79,-9472,99.3328857421875,0.4339599609375,-52.03125,350,3.5,0
256,91509,0.625,251748,625,1,-56,1981,-426,-0.02734375,0.96728515625,-0.2080078125,33,42,76,2.01416015625,2.5634765625,4.638671875,264,-1972,4708,18657,65,31925,102.4859619140625,0.3570556640625,175.3692626953125,356,3.56,0
257,91510,0.625,251748,625,2,-27,1897,750,-0.01318359375,0.92626953125,0.3662109375,-22,74,10,-1.3427734375,4.5166015625,0.6103515625,294,-1081,-3949,12354,559,814,67.862548828125,3.0706787109375,4.471435546875,357,3.57,0
258,91511,0.628,251751,628,0,-68,2019,-340,-0.033203125,0.98583984375,-0.166015625,-138,16,54,-8.4228515625,0.9765625,3.2958984375,-2763,-2338,-1733,18061,70,-9468,99.2120361328125,0.384521484375,-52.00927734375,350,3.5,0
259,91512,0.629,251752,629,1,-58,2001,-430,-0.0283203125,0.97705078125,-0.2099609375,35,28,68,2.13623046875,1.708984375,4.150390625,296,-1949,4787,18662,53,31929,102.513427734375,0.2911376953125,175.3912353515625,355,3.55,0
260,91513,0.63,251753,630,2,-30,1893,752,-0.0146484375,0.92431640625,0.3671875,-17,69,10,-1.03759765625,4.21142578125,0.6103515625,285,-1067,-3968,12353,562,821,67.8570556640625,3.087158203125,4.5098876953125,357,3.57,0
261,91514,0.635,251758,635,0,-77,2016,-354,-0.03759765625,0.984375,-0.1728515625,-133,17,54,-8.11767578125,1.03759765625,3.2958984375,-2766,-2352,-1724,18054,67,-9467,99.173583984375,0.3680419921875,-52.0037841796875,350,3.5,0
262,91515,0.636,251759,636,1,-52,2000,-426,-0.025390625,0.9765625,-0.2080078125,22,28,70,1.3427734375,1.708984375,4.2724609375,314,-1943,4805,18662,49,31930,102.513427734375,0.2691650390625,175.396728515625,355,3.55,0
263,91516,0.637,251760,637,2,-31,1892,752,-0.01513671875,0.923828125,0.3671875,-12,66,9,-0.732421875,4.0283203125,0.54931640625,283,-1088,-3967,12353,563,825,67.8570556640625,3.0926513671875,4.5318603515625,357,3.57,0
264,91517,0.642,251765,642,0,-78,2017,-362,-0.0380859375,0.98486328125,-0.1767578125,-122,22,52,-7.4462890625,1.3427734375,3.173828125,-2750,-2373,-1718,18048,64,-9465,99.140625,0.3515625,-51.9927978515625,350,3.5,0
265,91518,0.643,251766,643,1,-35,1997,-432,-0.01708984375,0.97509765625,-0.2109375,8,39,72,0.48828125,2.38037109375,4.39453125,306,-1938,4811,18663,40,31933,102.5189208984375,0.2197265625,175.4132080078125,355,3.55,0
266,91519,0.644,251767,644,2,-35,1891,751,-0.01708984375,0.92333984375,0.36669921875,-7,66,7,-0.42724609375,4.0283203125,0.42724609375,274,-1073,-3990,12353,565,828,67.8570556640625,3.1036376953125,4.54833984375,357,3.57,0
267,91520,0.649,251772,649,0,-78,2023,-370,-0.0380859375,0.98779296875,-0.1806640625,-104,36,50,-6.34765625,2.197265625,3.0517578125,-2719,-2323,-1658,18037,59,-9461,99.0802001953125,0.3240966796875,-51.9708251953125,350,3.5,0
268,91521,0.65,251773,650,1,-32,1985,-436,-0.015625,0.96923828125,-0.212890625,8,43,79,0.48828125,2.62451171875,4.82177734375,306,-1933,4812,18664,35,31935,102.5244140625,0.1922607421875,175.4241943359375,355,3.55,0
269,91522,0.651,251774,651,2,-42,1893,747,-0.0205078125,0.92431640625,0.36474609375,-4,59,8,-0.244140625,3.60107421875,0.48828125,295,-1063,-4011,12354,567,834,67.862548828125,3.1146240234375,4.581298828125,357,3.57,0
270,91523,0.656,251779,656,0,-75,2027,-371,-0.03662109375,0.98974609375,-0.18115234375,-102,38,53,-6.2255859375,2.3193359375,3.23486328125,-2710,-2331,-1695,18032,56,-9458,99.052734375,0.3076171875,-51.954345703125,350,3.5,0
271,91524,0.657,251780,657,1,-25,1974,-438,-0.01220703125,0.9638671875,-0.2138671875,22,43,88,1.3427734375,2.62451171875,5.37109375,322,-1906,4822,18665,25,31938,102.5299072265625,0.1373291015625,175.440673828125,355,3.55,0
272,91525,0.658,251781,658,2,-45,1894,745,-0.02197265625,0.9248046875,0.36376953125,-3,56,5,-0.18310546875,3.41796875,0.30517578125,301,-1051,-4017,12354,569,837,67.862548828125,3.1256103515625,4.5977783203125,357,3.57,0
273,91526,0.663,251786,663,0,-75,2027,-371,-0.03662109375,0.98974609375,-0.18115234375,-102,38,53,-6.2255859375,2.3193359375,3.23486328125,-2710,-2331,-1695,18032,56,-9458,99.052734375,0.3076171875,-51.954345703125,350,3.5,0
274,91527,0.664,251787,664,1,-27,1967,-440,-0.01318359375,0.96044921875,-0.21484375,22,38,94,1.3427734375,2.3193359375,5.7373046875,318,-1929,4836,18666,19,31939,102.535400390625,0.1043701171875,175.4461669921875,355,3.55,0
275,91528,0.665,251788,665,2,-48,1896,742,-0.0234375,0.92578125,0.3623046875,-1,54,-2,-0.06103515625,3.2958984375,-0.1220703125,306,-1046,-4021,12354,572,843,67.862548828125,3.14208984375,4.6307373046875,357,3.57,0
276,91529,0.67,251793,670,0,-57,2032,-352,-0.02783203125,0.9921875,-0.171875,-111,39,52,-6.77490234375,2.38037109375,3.173828125,-2739,-2305,-1739,18015,47,-9451,98.9593505859375,0.2581787109375,-51.9158935546875,350,3.5,0
277,91530,0.671,251794,671,1,-25,1960,-435,-0.01220703125,0.95703125,-0.21240234375,22,37,99,1.3427734375,2.25830078125,6.04248046875,297,-1920,4838,18668,13,31940,102.54638671875,0.0714111328125,175.45166015625,354,3.54,0
278,91531,0.672,251795,672,2,-51,1897,742,-0.02490234375,0.92626953125,0.3623046875,4,54,-7,0.244140625,3.2958984375,-0.42724609375,331,-1055,-4021,12355,574,845,67.8680419921875,3.153076171875,4.6417236328125,357,3.57,0
279,91532,0.677,251800,677,0,-59,2030,-343,-0.02880859375,0.9912109375,-0.16748046875,-113,31,55,-6.89697265625,1.89208984375,3.35693359375,-2734,-2315,-1738,18009,44,-9449,98.9263916015625,0.24169921875,-51.9049072265625,350,3.5,0
280,91533,0.684,251807,684,1,-32,1954,-426,-0.015625,0.9541015625,-0.2080078125,32,31,103,1.953125,1.89208984375,6.28662109375,304,-1940,4828,18671,1,31942,102.5628662109375,0.0054931640625,175.462646484375,354,3.54,0
281,91534,0.684,251807,684,0,-57,2031,-331,-0.02783203125,0.99169921875,-0.16162109375,-119,11,51,-7.26318359375,0.67138671875,3.11279296875,-2724,-2289,-1697,17996,38,-9447,98.85498046875,0.208740234375,-51.8939208984375,350,3.5,0
282,91535,0.685,251808,685,1,-35,1958,-426,-0.01708984375,0.9560546875,-0.2080078125,39,28,103,2.38037109375,1.708984375,6.28662109375,310,-1947,4815,18673,-4,31943,102.5738525390625,-0.02197265625,175.4681396484375,354,3.54,0
283,91536,0.686,251809,686,2,-58,1900,739,-0.0283203125,0.927734375,0.36083984375,23,50,-24,1.40380859375,3.0517578125,-1.46484375,314,-1074,-4003,12359,582,852,67.8900146484375,3.197021484375,4.68017578125,357,3.57,0
284,91537,0.691,251814,691,0,-52,2032,-329,-0.025390625,0.9921875,-0.16064453125,-122,-1,49,-7.4462890625,-0.06103515625,2.99072265625,-2722,-2298,-1713,17990,36,-9447,98.822021484375,0.19775390625,-51.8939208984375,350,3.5,0
285,91538,0.692,251815,692,1,-35,1978,-433,-0.01708984375,0.9658203125,-0.21142578125,44,16,103,2.685546875,0.9765625,6.28662109375,302,-1926,4771,18677,-15,31943,102.5958251953125,-0.0823974609375,175.4681396484375,354,3.54,0
286,91539,0.693,251816,693,2,-63,1901,735,-0.03076171875,0.92822265625,0.35888671875,22,49,-29,1.3427734375,2.99072265625,-1.77001953125,328,-1071,-3977,12361,585,853,67.9010009765625,3.2135009765625,4.6856689453125,357,3.57,0
287,91540,0.697,251820,697,0,-52,2032,-329,-0.025390625,0.9921875,-0.16064453125,-122,-1,49,-7.4462890625,-0.06103515625,2.99072265625,-2722,-2298,-1713,17990,36,-9447,98.822021484375,0.19775390625,-51.8939208984375,350,3.5,0
288,91541,0.699,251822,699,1,-30,1988,-435,-0.0146484375,0.970703125,-0.21240234375,44,16,94,2.685546875,0.9765625,5.7373046875,346,-1925,4738,18679,-21,31943,102.6068115234375,-0.1153564453125,175.4681396484375,354,3.54,0
289,91542,0.7,251823,700,2,-75,1899,733,-0.03662109375,0.92724609375,0.35791015625,11,46,-34,0.67138671875,2.8076171875,-2.0751953125,319,-1051,-3995,12363,592,857,67.9119873046875,3.251953125,4.7076416015625,357,3.57,0
290,91543,0.705,251828,705,0,-34,2035,-314,-0.0166015625,0.99365234375,-0.1533203125,-132,-40,40,-8.056640625,-2.44140625,2.44140625,-2721,-2322,-1670,17969,31,-9451,98.7066650390625,0.1702880859375,-51.9158935546875,350,3.5,0
291,91544,0.706,251829,706,1,-26,1995,-439,-0.0126953125,0.97412109375,-0.21435546875,39,15,94,2.38037109375,0.91552734375,5.7373046875,372,-1923,4721,18681,-26,31943,102.6177978515625,-0.142822265625,175.4681396484375,354,3.54,0
292,91545,0.707,251830,707,2,-75,1898,737,-0.03662109375,0.9267578125,0.35986328125,12,44,-35,0.732421875,2.685546875,-2.13623046875,317,-1037,-3967,12364,595,858,67.91748046875,3.2684326171875,4.713134765625,357,3.57,0
293,91546,0.712,251835,712,0,-27,2032,-309,-0.01318359375,0.9921875,-0.15087890625,-132,-43,42,-8.056640625,-2.62451171875,2.5634765625,-2733,-2314,-1675,17962,29,-9452,98.668212890625,0.1593017578125,-51.92138671875,350,3.5,0
294,91547,0.713,251836,713,1,-9,2013,-445,-0.00439453125,0.98291015625,-0.21728515625,33,15,92,2.01416015625,0.91552734375,5.615234375,341,-1961,4724,18684,-36,31943,102.63427734375,-0.19775390625,175.4681396484375,355,3.55,0
295,91548,0.714,251837,714,2,-70,1895,744,-0.0341796875,0.92529296875,0.36328125,20,43,-37,1.220703125,2.62451171875,-2.25830078125,342,-1036,-3950,12366,598,859,67.928466796875,3.284912109375,4.7186279296875,357,3.57,0
296,91549,0.719,251842,719,0,-16,2039,-300,-0.0078125,0.99560546875,-0.146484375,-138,-35,44,-8.4228515625,-2.13623046875,2.685546875,-2739,-2328,-1670,17947,26,-9456,98.5858154296875,0.142822265625,-51.943359375,350,3.5,0
297,91550,0.72,251843,720,1,-3,2007,-450,-0.00146484375,0.97998046875,-0.2197265625,27,20,95,1.64794921875,1.220703125,5.79833984375,341,-1958,4734,18685,-42,31944,102.6397705078125,-0.230712890625,175.4736328125,355,3.55,0
298,91551,0.721,251844,721,2,-53,1890,754,-0.02587890625,0.9228515625,0.3681640625,42,44,-36,2.5634765625,2.685546875,-2.197265625,376,-1047,-3991,12370,604,862,67.950439453125,3.31787109375,4.735107421875,357,3.57,0
299,91552,0.726,251849,726,0,-14,2041,-295,-0.0068359375,0.99658203125,-0.14404296875,-145,-33,42,-8.85009765625,-2.01416015625,2.5634765625,-2744,-2322,-1680,17939,24,-9457,98.5418701171875,0.1318359375,-51.9488525390625,350,3.5,0
300,91553,0.727,251850,727,1,20,1997,-447,0.009765625,0.97509765625,-0.21826171875,20,35,104,1.220703125,2.13623046875,6.34765625,334,-1945,4784,18687,-54,31946,102.6507568359375,-0.296630859375,175.484619140625,355,3.55,0
301,91554,0.728,251851,728,2,-46,1892,756,-0.0224609375,0.923828125,0.369140625,46,43,-36,2.8076171875,2.62451171875,-2.197265625,360,-1061,-4053,12370,604,861,67.950439453125,3.31787109375,4.7296142578125,357,3.57,0
302,91555,0.733,251856,733,0,-14,2041,-295,-0.0068359375,0.99658203125,-0.14404296875,-145,-33,42,-8.85009765625,-2.01416015625,2.5634765625,-2744,-2322,-1680,17939,24,-9457,98.5418701171875,0.1318359375,-51.9488525390625,350,3.5,0
303,91556,0.734,251857,734,1,25,1989,-455,0.01220703125,0.97119140625,-0.22216796875,20,40,108,1.220703125,2.44140625,6.591796875,345,-1923,4826,18688,-60,31947,102.65625,-0.32958984375,175.4901123046875,355,3.55,0
304,91557,0.735,251858,735,2,-41,1900,756,-0.02001953125,0.927734375,0.369140625,37,45,-36,2.25830078125,2.74658203125,-2.197265625,359,-1012,-4055,12370,573,877,67.950439453125,3.1475830078125,4.8175048828125,357,3.57,0
305,91558,0.74,251863,740,0,-16,2048,-273,-0.0078125,1.0,-0.13330078125,-170,-12,36,-10.3759765625,-0.732421875,2.197265625,-2733,-2300,-1751,17913,19,-9459,98.3990478515625,0.1043701171875,-51.9598388671875,350,3.5,0
306,91559,0.741,251864,741,1,32,1982,-458,0.015625,0.9677734375,-0.2236328125,26,43,113,1.5869140625,2.62451171875,6.89697265625,354,-1921,4801,18690,-67,31948,102.667236328125,-0.3680419921875,175.49560546875,355,3.55,0
307,91560,0.748,251871,748,2,-45,1902,757,-0.02197265625,0.9287109375,0.36962890625,33,44,-34,2.01416015625,2.685546875,-2.0751953125,347,-1031,-4033,12370,573,877,67.950439453125,3.1475830078125,4.8175048828125,357,3.57,0
308,91561,0.748,251871,748,0,-14,2049,-266,-0.0068359375,1.00048828125,-0.1298828125,-177,1,40,-10.80322265625,0.06103515625,2.44140625,-2730,-2317,-1773,17903,17,-9458,98.3441162109375,0.0933837890625,-51.954345703125,350,3.5,0
309,91562,0.748,251871,748,1,61,1960,-458,0.02978515625,0.95703125,-0.2236328125,38,56,127,2.3193359375,3.41796875,7.75146484375,317,-1891,4807,18693,-82,31952,102.6837158203125,-0.450439453125,175.517578125,355,3.55,0
310,91563,0.749,251872,749,2,-52,1902,757,-0.025390625,0.9287109375,0.36962890625,32,43,-32,1.953125,2.62451171875,-1.953125,352,-1034,-3992,12370,573,875,67.950439453125,3.1475830078125,4.8065185546875,357,3.57,0
311,91564,0.754,251877,754,0,-10,2058,-261,-0.0048828125,1.0048828125,-0.12744140625,-189,34,42,-11.53564453125,2.0751953125,2.5634765625,-2748,-2348,-1790,17883,13,-9453,98.2342529296875,0.0714111328125,-51.9268798828125,350,3.5,0
312,91565,0.755,251878,755,1,76,1957,-460,0.037109375,0.95556640625,-0.224609375,52,75,126,3.173828125,4.57763671875,7.6904296875,316,-1866,4763,18696,-90,31956,102.7001953125,-0.494384765625,175.53955078125,355,3.55,0
313,91566,0.756,251879,756,2,-64,1903,758,-0.03125,0.92919921875,0.3701171875,37,40,-34,2.25830078125,2.44140625,-2.0751953125,332,-1053,-4007,12370,568,877,67.950439453125,3.1201171875,4.8175048828125,357,3.57,0
314,91567,0.761,251884,761,0,-12,2057,-261,-0.005859375,1.00439453125,-0.12744140625,-192,44,39,-11.71875,2.685546875,2.38037109375,-2750,-2352,-1784,17873,10,-9450,98.1793212890625,0.054931640625,-51.910400390625,350,3.5,0
315,91568,0.762,251885,762,1,83,1960,-466,0.04052734375,0.95703125,-0.2275390625,59,103,125,3.60107421875,6.28662109375,7.62939453125,307,-1879,4721,18699,-98,31960,102.7166748046875,-0.538330078125,175.5615234375,355,3.55,0
316,91569,0.763,251886,763,2,-70,1903,757,-0.0341796875,0.92919921875,0.36962890625,38,39,-36,2.3193359375,2.38037109375,-2.197265625,324,-1030,-4016,12370,568,877,67.950439453125,3.1201171875,4.8175048828125,357,3.57,0
317,91570,0.768,251891,768,0,-13,2057,-262,-0.00634765625,1.00439453125,-0.1279296875,-195,51,31,-11.90185546875,3.11279296875,1.89208984375,-2763,-2347,-1768,17862,8,-9447,98.118896484375,0.0439453125,-51.8939208984375,350,3.5,0
318,91571,0.769,251892,769,1,80,1962,-461,0.0390625,0.9580078125,-0.22509765625,64,156,115,3.90625,9.521484375,7.01904296875,331,-1875,4808,18706,-115,31975,102.755126953125,-0.6317138671875,175.6439208984375,355,3.55,0
319,91572,0.77,251893,770,2,-76,1904,756,-0.037109375,0.9296875,0.369140625,37,38,-38,2.25830078125,2.3193359375,-2.3193359375,322,-1041,-4037,12370,568,875,67.950439453125,3.1201171875,4.8065185546875,357,3.57,0
320,91573,0.781,251904,781,0,-19,2062,-258,-0.00927734375,1.0068359375,-0.1259765625,-201,50,30,-12.26806640625,3.0517578125,1.8310546875,-2773,-2314,-1761,17840,5,-9440,97.998046875,0.0274658203125,-51.85546875,350,3.5,0
321,91574,0.781,251904,781,1,88,1950,-456,0.04296875,0.9521484375,-0.22265625,64,190,112,3.90625,11.5966796875,6.8359375,349,-1878,4796,18709,-123,31985,102.7716064453125,-0.6756591796875,175.6988525390625,355,3.55,0
322,91575,0.781,251904,781,2,-79,1904,754,-0.03857421875,0.9296875,0.3681640625,31,38,-46,1.89208984375,2.3193359375,-2.8076171875,351,-1027,-4045,12370,566,876,67.950439453125,3.109130859375,4.81201171875,357,3.57,0
323,91576,0.782,251905,782,0,-19,2064,-254,-0.00927734375,1.0078125,-0.1240234375,-204,46,25,-12.451171875,2.8076171875,1.52587890625,-2764,-2333,-1736,17829,3,-9437,97.9376220703125,0.0164794921875,-51.8389892578125,349,3.49,0
324,91577,0.783,251906,783,1,68,1959,-457,0.033203125,0.95654296875,-0.22314453125,77,224,111,4.69970703125,13.671875,6.77490234375,337,-1911,4816,18716,-141,32007,102.81005859375,-0.7745361328125,175.8197021484375,355,3.55,0
325,91578,0.784,251907,784,2,-81,1903,755,-0.03955078125,0.92919921875,0.36865234375,28,42,-50,1.708984375,2.5634765625,-3.0517578125,356,-1025,-4017,12370,566,876,67.950439453125,3.109130859375,4.81201171875,357,3.57,0
326,91579,0.789,251912,789,0,-15,2076,-242,-0.00732421875,1.013671875,-0.1181640625,-221,35,18,-13.48876953125,2.13623046875,1.0986328125,-2766,-2329,-1705,17805,2,-9432,97.8057861328125,0.010986328125,-51.8115234375,349,3.49,0
327,91580,0.79,251913,790,1,55,1984,-453,0.02685546875,0.96875,-0.22119140625,72,239,106,4.39453125,14.58740234375,6.4697265625,304,-1892,4800,18720,-149,32019,102.83203125,-0.8184814453125,175.8856201171875,355,3.55,0
328,91581,0.791,251914,791,2,-83,1897,754,-0.04052734375,0.92626953125,0.3681640625,34,43,-56,2.0751953125,2.62451171875,-3.41796875,354,-1078,-3989,12370,568,875,67.950439453125,3.1201171875,4.8065185546875,357,3.57,0
329,91582,0.796,251919,796,0,-13,2082,-238,-0.00634765625,1.0166015625,-0.1162109375,-231,33,14,-14.09912109375,2.01416015625,0.8544921875,-2768,-2332,-1717,17793,2,-9429,97.7398681640625,0.010986328125,-51.7950439453125,349,3.49,0
330,91583,0.797,251920,797,1,42,2003,-453,0.0205078125,0.97802734375,-0.22119140625,62,243,95,3.7841796875,14.83154296875,5.79833984375,310,-1892,4774,18723,-158,32031,102.8485107421875,-0.867919921875,175.9515380859375,355,3.55,0
331,91584,0.798,251921,798,2,-81,1895,751,-0.03955078125,0.92529296875,0.36669921875,37,53,-58,2.25830078125,3.23486328125,-3.5400390625,368,-1075,-3998,12373,573,877,67.9669189453125,3.1475830078125,4.8175048828125,356,3.56,0
332,91585,0.803,251926,803,0,-10,2080,-233,-0.0048828125,1.015625,-0.11376953125,-236,32,8,-14.404296875,1.953125,0.48828125,-2744,-2354,-1735,17780,1,-9427,97.66845703125,0.0054931640625,-51.7840576171875,349,3.49,0
333,91586,0.804,251927,804,1,6,2012,-447,0.0029296875,0.982421875,-0.21826171875,23,233,89,1.40380859375,14.22119140625,5.43212890625,319,-1891,4731,18725,-173,32055,102.8594970703125,-0.9503173828125,176.0833740234375,355,3.55,0
334,91587,0.805,251928,805,2,-79,1895,749,-0.03857421875,0.92529296875,0.36572265625,32,59,-63,1.953125,3.60107421875,-3.84521484375,364,-1083,-4009,12375,578,879,67.9779052734375,3.175048828125,4.8284912109375,356,3.56,0
335,91588,0.81,251933,810,0,-2,2077,-231,-0.0009765625,1.01416015625,-0.11279296875,-248,26,1,-15.13671875,1.5869140625,0.06103515625,-2742,-2353,-1710,17753,1,-9422,97.5201416015625,0.0054931640625,-51.756591796875,349,3.49,0
336,91589,0.811,251934,811,1,-26,1993,-453,-0.0126953125,0.97314453125,-0.22119140625,7,212,94,0.42724609375,12.939453125,5.7373046875,323,-1891,4713,18724,-181,32065,102.85400390625,-0.9942626953125,176.1383056640625,355,3.55,0
337,91590,0.812,251935,812,2,-73,1898,754,-0.03564453125,0.9267578125,0.3681640625,23,69,-70,1.40380859375,4.21142578125,-4.2724609375,333,-1133,-4003,12378,589,883,67.994384765625,3.2354736328125,4.8504638671875,356,3.56,0
338,91591,0.817,251940,817,0,1,2079,-236,0.00048828125,1.01513671875,-0.115234375,-251,29,-4,-15.31982421875,1.77001953125,-0.244140625,-2738,-2346,-1686,17739,2,-9420,97.4432373046875,0.010986328125,-51.74560546875,349,3.49,0
339,91592,0.818,251941,818,1,-38,1971,-453,-0.0185546875,0.96240234375,-0.22119140625,1,169,94,0.06103515625,10.31494140625,5.7373046875,309,-1875,4710,18724,-195,32082,102.85400390625,-1.0711669921875,176.231689453125,355,3.55,0
340,91593,0.819,251942,819,2,-70,1902,760,-0.0341796875,0.9287109375,0.37109375,29,80,-73,1.77001953125,4.8828125,-4.45556640625,324,-1113,-3997,12380,595,886,68.00537109375,3.2684326171875,4.866943359375,356,3.56,0
341,91594,0.824,251947,824,0,1,2079,-236,0.00048828125,1.01513671875,-0.115234375,-251,29,-4,-15.31982421875,1.77001953125,-0.244140625,-2738,-2346,-1686,17739,2,-9420,97.4432373046875,0.010986328125,-51.74560546875,349,3.49,0
342,91595,0.825,251948,825,1,-46,1948,-450,-0.0224609375,0.951171875,-0.2197265625,0,131,100,0.0,7.99560546875,6.103515625,299,-1854,4695,18723,-202,32088,102.8485107421875,-1.109619140625,176.2646484375,354,3.54,0
343,91596,0.826,251949,826,2,-69,1916,768,-0.03369140625,0.935546875,0.375,24,99,-77,1.46484375,6.04248046875,-4.69970703125,349,-1099,-4010,12383,608,893,68.0218505859375,3.33984375,4.9053955078125,356,3.56,0
344,91597,0.831,251954,831,0,25,2096,-234,0.01220703125,1.0234375,-0.1142578125,-255,42,-17,-15.56396484375,2.5634765625,-1.03759765625,-2710,-2303,-1724,17698,3,-9411,97.218017578125,0.0164794921875,-51.6961669921875,349,3.49,0
345,91598,0.832,251955,832,1,-41,1937,-441,-0.02001953125,0.94580078125,-0.21533203125,-2,103,100,-0.1220703125,6.28662109375,6.103515625,308,-1858,4740,18723,-209,32092,102.8485107421875,-1.1480712890625,176.28662109375,354,3.54,0
346,91599,0.833,251956,833,2,-72,1927,772,-0.03515625,0.94091796875,0.376953125,10,110,-79,0.6103515625,6.7138671875,-4.82177734375,366,-1125,-4005,12384,615,897,68.02734375,3.3782958984375,4.9273681640625,356,3.56,0
347,91600,0.84,251963,840,0,33,2099,-230,0.01611328125,1.02490234375,-0.1123046875,-264,52,-24,-16.11328125,3.173828125,-1.46484375,-2706,-2334,-1754,17683,5,-9406,97.1356201171875,0.0274658203125,-51.668701171875,349,3.49,0
348,91601,0.84,251963,840,1,-25,1915,-450,-0.01220703125,0.93505859375,-0.2197265625,11,46,103,0.67138671875,2.8076171875,6.28662109375,279,-1853,4785,18724,-221,32095,102.85400390625,-1.2139892578125,176.3031005859375,354,3.54,0
349,91602,0.84,251963,840,2,-76,1934,773,-0.037109375,0.9443359375,0.37744140625,-1,117,-77,-0.06103515625,7.14111328125,-4.69970703125,363,-1122,-4030,12384,622,901,68.02734375,3.416748046875,4.9493408203125,356,3.56,0
350,91603,0.845,251968,845,0,54,2112,-222,0.0263671875,1.03125,-0.1083984375,-284,83,-35,-17.333984375,5.06591796875,-2.13623046875,-2711,-2317,-1756,17652,8,-9395,96.96533203125,0.0439453125,-51.6082763671875,349,3.49,0
351,91604,0.846,251969,846,1,-13,1908,-461,-0.00634765625,0.931640625,-0.22509765625,31,21,106,1.89208984375,1.28173828125,6.4697265625,264,-1852,4771,18726,-227,32095,102.864990234375,-1.2469482421875,176.3031005859375,354,3.54,0
352,91605,0.847,251970,847,2,-82,1940,775,-0.0400390625,0.947265625,0.37841796875,-15,138,-82,-0.91552734375,8.4228515625,-5.0048828125,366,-1108,-4056,12384,637,912,68.02734375,3.4991455078125,5.009765625,356,3.56,0
353,91606,0.852,251975,852,0,62,2118,-222,0.0302734375,1.0341796875,-0.1083984375,-297,100,-46,-18.12744140625,6.103515625,-2.8076171875,-2708,-2342,-1765,17636,10,-9388,96.87744140625,0.054931640625,-51.56982421875,349,3.49,0
354,91607,0.853,251976,853,1,37,1915,-464,0.01806640625,0.93505859375,-0.2265625,62,5,102,3.7841796875,0.30517578125,6.2255859375,271,-1894,4774,18732,-238,32094,102.89794921875,-1.307373046875,176.297607421875,354,3.54,0
355,91608,0.854,251977,854,2,-90,1937,776,-0.0439453125,0.94580078125,0.37890625,-23,148,-85,-1.40380859375,9.033203125,-5.18798828125,369,-1101,-4103,12383,645,918,68.0218505859375,3.5430908203125,5.042724609375,356,3.56,0
356,91609,0.859,251982,859,0,62,2118,-222,0.0302734375,1.0341796875,-0.1083984375,-297,100,-46,-18.12744140625,6.103515625,-2.8076171875,-2708,-2342,-1765,17636,10,-9388,96.87744140625,0.054931640625,-51.56982421875,349,3.49,0
357,91610,0.86,251983,860,1,67,1933,-468,0.03271484375,0.94384765625,-0.228515625,65,9,99,3.96728515625,0.54931640625,6.04248046875,282,-1880,4754,18735,-244,32094,102.9144287109375,-1.34033203125,176.297607421875,354,3.54,0
358,91611,0.861,251984,861,2,-107,1927,782,-0.05224609375,0.94091796875,0.3818359375,-37,153,-86,-2.25830078125,9.33837890625,-5.2490234375,373,-1104,-4173,12380,661,930,68.00537109375,3.6309814453125,5.108642578125,356,3.56,0
359,91612,0.866,251989,866,0,75,2128,-224,0.03662109375,1.0390625,-0.109375,-345,137,-65,-21.05712890625,8.36181640625,-3.96728515625,-2758,-2336,-1842,17581,19,-9363,96.5753173828125,0.1043701171875,-51.4324951171875,348,3.48,0
360,91613,0.868,251991,868,2,-114,1921,787,-0.0556640625,0.93798828125,0.38427734375,-39,157,-88,-2.38037109375,9.58251953125,-5.37109375,361,-1090,-4163,12379,670,937,67.9998779296875,3.680419921875,5.1470947265625,356,3.56,0
361,91614,0.873,251996,873,0,78,2128,-219,0.0380859375,1.0390625,-0.10693359375,-363,138,-77,-22.15576171875,8.4228515625,-4.69970703125,-2757,-2344,-1852,17561,22,-9354,96.4654541015625,0.120849609375,-51.383056640625,348,3.48,0
362,91615,0.875,251998,875,2,-120,1913,792,-0.05859375,0.93408203125,0.38671875,-37,162,-89,-2.25830078125,9.8876953125,-5.43212890625,371,-1101,-4148,12377,678,943,67.9888916015625,3.724365234375,5.1800537109375,356,3.56,0
363,91616,0.88,252003,880,0,92,2120,-210,0.044921875,1.03515625,-0.1025390625,-395,133,-99,-24.10888671875,8.11767578125,-6.04248046875,-2778,-2362,-1798,17517,32,-9336,96.2237548828125,0.17578125,-51.2841796875,349,3.49,0
364,91617,0.882,252005,882,2,-133,1898,798,-0.06494140625,0.9267578125,0.3896484375,-28,172,-92,-1.708984375,10.498046875,-5.615234375,384,-1094,-4123,12375,695,957,67.9779052734375,3.8177490234375,5.2569580078125,355,3.55,0
365,91618,0.887,252010,887,0,100,2118,-199,0.048828125,1.0341796875,-0.09716796875,-411,134,-111,-25.08544921875,8.1787109375,-6.77490234375,-2776,-2339,-1826,17495,38,-9328,96.1029052734375,0.208740234375,-51.240234375,349,3.49,0
366,91619,0.889,252012,889,2,-145,1892,799,-0.07080078125,0.923828125,0.39013671875,-26,184,-93,-1.5869140625,11.23046875,-5.67626953125,393,-1100,-4134,12375,705,965,67.9779052734375,3.8726806640625,5.3009033203125,355,3.55,0
367,91620,0.894,252017,894,0,114,2123,-186,0.0556640625,1.03662109375,-0.0908203125,-424,133,-119,-25.87890625,8.11767578125,-7.26318359375,-2760,-2348,-1828,17471,44,-9319,95.9710693359375,0.24169921875,-51.1907958984375,349,3.49,0
368,91621,0.896,252019,896,2,-174,1887,798,-0.0849609375,0.92138671875,0.3896484375,-27,186,-95,-1.64794921875,11.3525390625,-5.79833984375,385,-1087,-4044,12373,723,980,67.9669189453125,3.9715576171875,5.38330078125,356,3.56,0
369,91622,0.904,252027,904,0,132,2139,-163,0.064453125,1.04443359375,-0.07958984375,-451,140,-129,-27.52685546875,8.544921875,-7.87353515625,-2781,-2361,-1839,17422,57,-9300,95.701904296875,0.3131103515625,-51.08642578125,349,3.49,0
370,91623,0.904,252027,904,1,0,1979,-513,0.0,0.96630859375,-0.25048828125,16,272,51,0.9765625,16.6015625,3.11279296875,202,-1902,4871,18757,-289,32171,103.0352783203125,-1.5875244140625,176.7205810546875,355,3.55,0
371,91624,0.905,252028,905,2,-182,1885,795,-0.0888671875,0.92041015625,0.38818359375,-20,190,-101,-1.220703125,11.5966796875,-6.16455078125,372,-1068,-4067,12373,733,988,67.9669189453125,4.0264892578125,5.42724609375,357,3.57,0
372,91625,0.908,252031,908,0,140,2144,-147,0.068359375,1.046875,-0.07177734375,-463,146,-133,-28.25927734375,8.9111328125,-8.11767578125,-2769,-2369,-1837,17397,64,-9291,95.5645751953125,0.3515625,-51.0369873046875,349,3.49,0
373,91626,0.91,252033,910,2,-188,1885,792,-0.091796875,0.92041015625,0.38671875,-17,199,-107,-1.03759765625,12.14599609375,-6.53076171875,361,-1096,-4066,12373,743,996,67.9669189453125,4.0814208984375,5.47119140625,357,3.57,0
374,91627,0.915,252038,915,0,133,2151,-135,0.06494140625,1.05029296875,-0.06591796875,-471,152,-144,-28.74755859375,9.27734375,-8.7890625,-2763,-2361,-1857,17345,79,-9271,95.2789306640625,0.4339599609375,-50.9271240234375,349,3.49,0
375,91628,0.917,252040,917,2,-192,1895,789,-0.09375,0.92529296875,0.38525390625,-38,213,-119,-2.3193359375,13.00048828125,-7.26318359375,383,-1102,-4095,12370,765,1013,67.950439453125,4.2022705078125,5.5645751953125,357,3.57,0
376,91629,0.922,252045,922,0,134,2157,-139,0.0654296875,1.05322265625,-0.06787109375,-468,149,-146,-28.564453125,9.09423828125,-8.9111328125,-2746,-2375,-1844,17320,86,-9261,95.1416015625,0.472412109375,-50.8721923828125,349,3.49,0
377,91630,0.924,252047,924,2,-192,1901,793,-0.09375,0.92822265625,0.38720703125,-46,222,-125,-2.8076171875,13.5498046875,-7.62939453125,397,-1109,-4058,12368,777,1022,67.939453125,4.2681884765625,5.614013671875,358,3.58,0
378,91631,0.929,252052,929,0,147,2161,-149,0.07177734375,1.05517578125,-0.07275390625,-448,150,-148,-27.34375,9.1552734375,-9.033203125,-2755,-2378,-1848,17296,94,-9251,95.009765625,0.516357421875,-50.8172607421875,349,3.49,0
379,91632,0.931,252054,931,2,-192,1908,798,-0.09375,0.931640625,0.3896484375,-50,230,-129,-3.0517578125,14.0380859375,-7.87353515625,401,-1121,-4075,12366,789,1031,67.928466796875,4.3341064453125,5.6634521484375,358,3.58,0
380,91633,0.936,252059,936,0,187,2180,-178,0.09130859375,1.064453125,-0.0869140625,-391,162,-164,-23.86474609375,9.8876953125,-10.009765625,-2734,-2397,-1843,17253,111,-9230,94.7735595703125,0.6097412109375,-50.701904296875,349,3.49,0
381,91634,0.938,252061,938,2,-183,1926,811,-0.08935546875,0.9404296875,0.39599609375,-63,244,-146,-3.84521484375,14.892578125,-8.9111328125,415,-1098,-4048,12361,815,1051,67.9010009765625,4.4769287109375,5.7733154296875,358,3.58,0
382,91635,0.943,252066,943,0,175,2185,-191,0.08544921875,1.06689453125,-0.09326171875,-382,168,-176,-23.3154296875,10.25390625,-10.7421875,-2717,-2384,-1832,17232,121,-9219,94.658203125,0.6646728515625,-50.6414794921875,349,3.49,0
383,91636,0.945,252068,945,2,-179,1930,817,-0.08740234375,0.9423828125,0.39892578125,-59,249,-156,-3.60107421875,15.19775390625,-9.521484375,361,-1126,-4066,12359,829,1060,67.8900146484375,4.5538330078125,5.82275390625,358,3.58,0
384,91637,0.955,252078,955,0,175,2185,-191,0.08544921875,1.06689453125,-0.09326171875,-382,168,-176,-23.3154296875,10.25390625,-10.7421875,-2717,-2384,-1832,17232,121,-9219,94.658203125,0.6646728515625,-50.6414794921875,349,3.49,0
385,91638,0.955,252078,955,1,227,1914,-451,0.11083984375,0.9345703125,-0.22021484375,100,-5,-52,6.103515625,-0.30517578125,-3.173828125,198,-1921,4867,18781,-295,32183,103.1671142578125,-1.6204833984375,176.7864990234375,356,3.56,0
386,91639,0.955,252078,955,2,-180,1934,826,-0.087890625,0.9443359375,0.4033203125,-47,252,-183,-2.86865234375,15.380859375,-11.16943359375,417,-1134,-4092,12356,859,1079,67.87353515625,4.7186279296875,5.9271240234375,358,3.58,0
387,91640,0.957,252080,957,0,55,2162,-226,0.02685546875,1.0556640625,-0.1103515625,-394,78,-208,-24.0478515625,4.7607421875,-12.6953125,-2747,-2385,-1879,17168,154,-9197,94.306640625,0.845947265625,-50.5206298828125,349,3.49,0
388,91641,0.959,252082,959,2,-183,1930,829,-0.08935546875,0.9423828125,0.40478515625,-30,274,-190,-1.8310546875,16.7236328125,-11.5966796875,431,-1122,-4039,12356,875,1090,67.87353515625,4.8065185546875,5.987548828125,359,3.59,0
389,91642,0.964,252087,964,0,4,2156,-249,0.001953125,1.052734375,-0.12158203125,-417,-4,-212,-25.45166015625,-0.244140625,-12.939453125,-2765,-2403,-1906,17144,167,-9198,94.1748046875,0.9173583984375,-50.526123046875,349,3.49,0
390,91643,0.966,252089,966,2,-192,1926,828,-0.09375,0.9404296875,0.404296875,7,281,-200,0.42724609375,17.15087890625,-12.20703125,454,-1136,-4052,12359,892,1100,67.8900146484375,4.89990234375,6.04248046875,359,3.59,0
391,91644,0.973,252096,973,2,-222,1920,807,-0.1083984375,0.9375,0.39404296875,91,263,-222,5.55419921875,16.05224609375,-13.5498046875,477,-1117,-4059,12370,927,1118,67.950439453125,5.0921630859375,6.141357421875,359,3.59,0
392,91645,0.978,252101,978,0,-165,2163,-327,-0.08056640625,1.05615234375,-0.15966796875,-570,-387,-221,-34.7900390625,-23.62060546875,-13.48876953125,-2732,-2411,-1929,17054,208,-9243,93.680419921875,1.142578125,-50.7733154296875,349,3.49,0
393,91646,0.98,252103,980,2,-237,1917,788,-0.11572265625,0.93603515625,0.384765625,102,275,-231,6.2255859375,16.78466796875,-14.09912109375,495,-1100,-4081,12377,945,1128,67.9888916015625,5.1910400390625,6.1962890625,359,3.59,0
394,91647,0.985,252108,985,0,-165,2163,-327,-0.08056640625,1.05615234375,-0.15966796875,-570,-387,-221,-34.7900390625,-23.62060546875,-13.48876953125,-2732,-2411,-1929,17054,208,-9243,93.680419921875,1.142578125,-50.7733154296875,349,3.49,0
395,91648,0.987,252110,987,2,-264,1922,755,-0.12890625,0.9384765625,0.36865234375,77,304,-244,4.69970703125,18.5546875,-14.892578125,525,-1085,-4131,12388,983,1149,68.04931640625,5.3997802734375,6.3116455078125,359,3.59,0
396,91649,0.992,252115,992,0,-301,2107,-344,-0.14697265625,1.02880859375,-0.16796875,-576,-782,-211,-35.15625,-47.7294921875,-12.87841796875,-2722,-2421,-1887,16956,252,-9356,93.14208984375,1.38427734375,-51.39404296875,349,3.49,0
397,91650,0.994,252117,994,2,-273,1926,748,-0.13330078125,0.9404296875,0.365234375,65,307,-247,3.96728515625,18.73779296875,-15.07568359375,532,-1084,-4104,12393,1003,1160,68.0767822265625,5.5096435546875,6.3720703125,359,3.59,0
398,91651,0.999,252122,999,0,-343,2076,-343,-0.16748046875,1.013671875,-0.16748046875,-541,-919,-207,-33.02001953125,-56.09130859375,-12.63427734375,-2716,-2422,-1901,16926,267,-9408,92.977294921875,1.4666748046875,-51.6796875,349,3.49,0
399,91652,1.014,252137,1014,2,-279,1927,749,-0.13623046875,0.94091796875,0.36572265625,70,312,-254,4.2724609375,19.04296875,-15.5029296875,553,-1081,-4095,12398,1023,1171,68.104248046875,5.6195068359375,6.4324951171875,359,3.59,0
400,91653,1.022,252145,1022,0,-387,1993,-307,-0.18896484375,0.97314453125,-0.14990234375,-455,-1173,-211,-27.77099609375,-71.59423828125,-12.87841796875,-2715,-2416,-1911,16872,298,-9534,92.6806640625,1.636962890625,-52.371826171875,349,3.49,0
401,91654,1.023,252146,1023,2,-334,1983,701,-0.1630859375,0.96826171875,0.34228515625,122,267,-257,7.4462890625,16.29638671875,-15.68603515625,545,-1103,-4068,12442,1121,1220,68.345947265625,6.1578369140625,6.70166015625,359,3.59,0
402,91655,1.029,252152,1029,2,-354,1992,678,-0.1728515625,0.97265625,0.3310546875,70,253,-255,4.2724609375,15.44189453125,-15.56396484375,541,-1101,-4032,12445,1140,1228,68.3624267578125,6.26220703125,6.74560546875,358,3.58,0
403,91656,1.034,252157,1034,0,-286,1771,-203,-0.1396484375,0.86474609375,-0.09912109375,-302,-1358,-158,-18.4326171875,-82.8857421875,-9.6435546875,-2673,-2414,-1912,16766,372,-9901,92.098388671875,2.04345703125,-54.3878173828125,349,3.49,0
404,91657,1.036,252159,1036,2,-381,1992,661,-0.18603515625,0.97265625,0.32275390625,20,249,-249,1.220703125,15.19775390625,-15.19775390625,537,-1127,-3992,12447,1158,1236,68.3734130859375,6.361083984375,6.78955078125,358,3.58,0
405,91658,1.041,252164,1041,0,-214,1773,-232,-0.1044921875,0.86572265625,-0.11328125,-289,-1338,-50,-17.63916015625,-81.6650390625,-3.0517578125,-2693,-2430,-1942,16730,386,-10048,91.900634765625,2.120361328125,-55.1953125,349,3.49,0
406,91659,1.043,252166,1043,2,-457,1963,648,-0.22314453125,0.95849609375,0.31640625,-6,199,-233,-0.3662109375,12.14599609375,-14.22119140625,530,-1162,-4016,12448,1192,1247,68.37890625,6.5478515625,6.8499755859375,358,3.58,0
407,91660,1.048,252171,1048,0,-138,1815,-249,-0.0673828125,0.88623046875,-0.12158203125,-282,-1312,11,-17.2119140625,-80.078125,0.67138671875,-2709,-2422,-1976,16712,387,-10119,91.8017578125,2.1258544921875,-55.5853271484375,348,3.48,0
408,91661,1.05,252173,1050,2,-492,1939,648,-0.240234375,0.94677734375,0.31640625,10,183,-221,0.6103515625,11.16943359375,-13.48876953125,510,-1174,-4023,12449,1207,1252,68.3843994140625,6.6302490234375,6.87744140625,358,3.58,0
409,91662,1.055,252178,1055,0,-45,1882,-244,-0.02197265625,0.9189453125,-0.119140625,-271,-1266,79,-16.54052734375,-77.2705078125,4.82177734375,-2723,-2415,-2006,16695,384,-10187,91.7083740234375,2.109375,-55.9588623046875,348,3.48,0
410,91663,1.057,252180,1057,2,-517,1912,647,-0.25244140625,0.93359375,0.31591796875,19,164,-211,1.15966796875,10.009765625,-12.87841796875,530,-1156,-4049,12452,1221,1256,68.40087890625,6.7071533203125,6.8994140625,358,3.58,0
411,91664,1.062,252185,1062,0,122,2018,-188,0.0595703125,0.9853515625,-0.091796875,-242,-1134,168,-14.7705078125,-69.2138671875,10.25390625,-2699,-2437,-2012,16664,372,-10313,91.5380859375,2.04345703125,-56.6510009765625,348,3.48,0
412,91665,1.063,252186,1063,1,155,2052,-401,0.07568359375,1.001953125,-0.19580078125,-43,184,42,-2.62451171875,11.23046875,2.5634765625,270,-1855,4810,18798,-333,32331,103.260498046875,-1.8292236328125,177.5994873046875,356,3.56,0
413,91666,1.064,252187,1064,2,-520,1862,637,-0.25390625,0.9091796875,0.31103515625,65,120,-205,3.96728515625,7.32421875,-12.51220703125,526,-1138,-4089,12460,1249,1261,68.44482421875,6.8609619140625,6.9268798828125,358,3.58,0
414,91667,1.069,252192,1069,0,199,2052,-143,0.09716796875,1.001953125,-0.06982421875,-224,-1085,176,-13.671875,-66.22314453125,10.7421875,-2698,-2427,-1976,16651,364,-10372,91.4666748046875,1.99951171875,-56.97509765625,348,3.48,0
415,91668,1.07,252193,1070,1,95,2027,-412,0.04638671875,0.98974609375,-0.201171875,-54,93,39,-3.2958984375,5.67626953125,2.38037109375,243,-1833,4776,18791,-340,32342,103.2220458984375,-1.86767578125,177.659912109375,355,3.55,0
416,91669,1.071,252194,1071,2,-510,1847,625,-0.2490234375,0.90185546875,0.30517578125,106,101,-203,6.4697265625,6.16455078125,-12.39013671875,527,-1125,-4060,12467,1262,1262,68.4832763671875,6.932373046875,6.932373046875,358,3.58,0
417,91670,1.079,252202,1079,0,199,2052,-143,0.09716796875,1.001953125,-0.06982421875,-224,-1085,176,-13.671875,-66.22314453125,10.7421875,-2698,-2427,-1976,16651,364,-10372,91.4666748046875,1.99951171875,-56.97509765625,348,3.48,0
418,91671,1.079,252202,1079,1,59,2012,-418,0.02880859375,0.982421875,-0.2041015625,-59,39,36,-3.60107421875,2.38037109375,2.197265625,229,-1857,4787,18788,-342,32343,103.20556640625,-1.878662109375,177.6654052734375,355,3.55,0
419,91672,1.079,252202,1079,2,-501,1844,577,-0.24462890625,0.900390625,0.28173828125,131,83,-197,7.99560546875,5.06591796875,-12.02392578125,550,-1163,-4083,12482,1287,1262,68.565673828125,7.0697021484375,6.932373046875,358,3.58,0
420,91673,1.083,252206,1083,0,425,1994,4,0.20751953125,0.9736328125,0.001953125,-151,-1113,130,-9.21630859375,-67.93212890625,7.9345703125,-2655,-2440,-1958,16618,348,-10553,91.285400390625,1.91162109375,-57.9693603515625,348,3.48,0
421,91674,1.085,252208,1085,2,-506,1855,547,-0.2470703125,0.90576171875,0.26708984375,107,62,-184,6.53076171875,3.7841796875,-11.23046875,576,-1187,-4110,12487,1297,1262,68.5931396484375,7.1246337890625,6.932373046875,358,3.58,0
422,91675,1.09,252213,1090,0,505,1957,62,0.24658203125,0.95556640625,0.0302734375,-139,-1113,97,-8.48388671875,-67.93212890625,5.92041015625,-2641,-2429,-1968,16608,345,-10613,91.23046875,1.8951416015625,-58.2989501953125,348,3.48,0
423,91676,1.091,252214,1091,1,-37,1971,-431,-0.01806640625,0.96240234375,-0.21044921875,-54,-106,17,-3.2958984375,-6.4697265625,1.03759765625,240,-1939,4795,18778,-342,32331,103.150634765625,-1.878662109375,177.5994873046875,355,3.55,0
424,91677,1.092,252215,1092,2,-509,1868,520,-0.24853515625,0.912109375,0.25390625,73,49,-168,4.45556640625,2.99072265625,-10.25390625,565,-1182,-4073,12490,1307,1261,68.609619140625,7.1795654296875,6.9268798828125,358,3.58,0
425,91678,1.097,252220,1097,0,615,1887,148,0.30029296875,0.92138671875,0.072265625,-138,-776,20,-8.4228515625,-47.36328125,1.220703125,-2609,-2459,-1924,16591,346,-10699,91.1370849609375,1.900634765625,-58.7713623046875,348,3.48,0
426,91679,1.099,252222,1099,2,-494,1884,497,-0.2412109375,0.919921875,0.24267578125,12,40,-145,0.732421875,2.44140625,-8.85009765625,564,-1147,-4077,12492,1325,1259,68.62060546875,7.2784423828125,6.9158935546875,358,3.58,0
427,91680,1.104,252227,1104,0,647,1842,165,0.31591796875,0.8994140625,0.08056640625,-122,-414,-20,-7.4462890625,-25.2685546875,-1.220703125,-2618,-2456,-1947,16585,349,-10711,91.1041259765625,1.9171142578125,-58.8372802734375,348,3.48,0
428,91681,1.106,252229,1106,2,-478,1893,506,-0.2333984375,0.92431640625,0.2470703125,19,32,-133,1.15966796875,1.953125,-8.11767578125,580,-1142,-4052,12494,1333,1257,68.631591796875,7.3223876953125,6.9049072265625,358,3.58,0
429,91682,1.111,252234,1111,0,647,1842,165,0.31591796875,0.8994140625,0.08056640625,-122,-414,-20,-7.4462890625,-25.2685546875,-1.220703125,-2618,-2456,-1947,16585,349,-10711,91.1041259765625,1.9171142578125,-58.8372802734375,348,3.48,0
430,91683,1.112,252235,1112,1,-12,1971,-420,-0.005859375,0.96240234375,-0.205078125,-1,-265,14,-0.06103515625,-16.17431640625,0.8544921875,230,-1927,4858,18775,-333,32283,103.1341552734375,-1.8292236328125,177.3358154296875,356,3.56,0
431,91684,1.113,252236,1113,2,-436,1904,535,-0.212890625,0.9296875,0.26123046875,60,4,-115,3.662109375,0.244140625,-7.01904296875,614,-1135,-4066,12500,1346,1253,68.66455078125,7.393798828125,6.8829345703125,358,3.58,0
432,91685,1.118,252241,1118,0,578,1681,43,0.2822265625,0.82080078125,0.02099609375,20,742,-152,1.220703125,45.2880859375,-9.27734375,-2558,-2447,-1940,16587,368,-10621,91.1151123046875,2.021484375,-58.3428955078125,347,3.47,0
433,91686,1.119,252242,1119,1,9,1979,-418,0.00439453125,0.96630859375,-0.2041015625,12,-291,22,0.732421875,-17.76123046875,1.3427734375,214,-1929,4888,18776,-331,32267,103.1396484375,-1.8182373046875,177.2479248046875,356,3.56,0
434,91687,1.12,252243,1120,2,-415,1908,543,-0.20263671875,0.931640625,0.26513671875,79,-2,-110,4.82177734375,-0.1220703125,-6.7138671875,638,-1141,-4067,12505,1352,1251,68.6920166015625,7.4267578125,6.8719482421875,358,3.58,0
435,91688,1.125,252248,1125,0,533,1641,-5,0.26025390625,0.80126953125,-0.00244140625,60,1001,-212,3.662109375,61.09619140625,-12.939453125,-2542,-2435,-1949,16593,380,-10560,91.1480712890625,2.08740234375,-58.0078125,347,3.47,0
436,91689,1.127,252250,1127,2,-401,1913,543,-0.19580078125,0.93408203125,0.26513671875,83,-16,-100,5.06591796875,-0.9765625,-6.103515625,665,-1137,-4083,12509,1357,1248,68.7139892578125,7.4542236328125,6.85546875,358,3.58,0
437,91690,1.132,252255,1132,0,452,1594,-74,0.220703125,0.7783203125,-0.0361328125,114,1313,-299,6.9580078125,80.13916015625,-18.24951171875,-2539,-2438,-1926,16612,409,-10414,91.25244140625,2.2467041015625,-57.205810546875,347,3.47,0
438,91691,1.133,252256,1133,1,78,2006,-420,0.0380859375,0.9794921875,-0.205078125,37,-342,53,2.25830078125,-20.8740234375,3.23486328125,224,-1937,4897,18782,-326,32212,103.172607421875,-1.790771484375,176.94580078125,356,3.56,0
439,91692,1.134,252257,1134,2,-386,1914,534,-0.1884765625,0.9345703125,0.2607421875,33,-42,-62,2.01416015625,-2.5634765625,-3.7841796875,658,-1140,-4141,12512,1363,1241,68.73046875,7.4871826171875,6.8170166015625,358,3.58,0
440,91693,1.143,252266,1143,0,417,1577,-106,0.20361328125,0.77001953125,-0.0517578125,150,1396,-314,9.1552734375,85.205078125,-19.1650390625,-2540,-2465,-1943,16625,424,-10334,91.3238525390625,2.3291015625,-56.766357421875,347,3.47,0
441,91694,1.143,252266,1143,1,109,2022,-410,0.05322265625,0.9873046875,-0.2001953125,47,-337,73,2.86865234375,-20.56884765625,4.45556640625,221,-1909,4904,18788,-325,32175,103.20556640625,-1.7852783203125,176.7425537109375,356,3.56,0
442,91695,1.143,252266,1143,2,-382,1901,532,-0.1865234375,0.92822265625,0.259765625,3,-58,-39,0.18310546875,-3.5400390625,-2.38037109375,645,-1153,-4150,12512,1364,1237,68.73046875,7.49267578125,6.7950439453125,358,3.58,0
443,91696,1.146,252269,1146,0,417,1577,-106,0.20361328125,0.77001953125,-0.0517578125,150,1396,-314,9.1552734375,85.205078125,-19.1650390625,-2540,-2465,-1943,16625,424,-10334,91.3238525390625,2.3291015625,-56.766357421875,347,3.47,0
444,91697,1.147,252270,1147,1,124,2024,-389,0.060546875,0.98828125,-0.18994140625,50,-319,85,3.0517578125,-19.47021484375,5.18798828125,233,-1916,4935,18791,-326,32157,103.2220458984375,-1.790771484375,176.6436767578125,356,3.56,0
445,91698,1.148,252271,1148,2,-376,1857,542,-0.18359375,0.90673828125,0.2646484375,-4,-79,0,-0.244140625,-4.82177734375,0.0,663,-1126,-4180,12511,1363,1228,68.7249755859375,7.4871826171875,6.74560546875,358,3.58,0
446,91699,1.153,252276,1153,0,232,1591,-305,0.11328125,0.77685546875,-0.14892578125,284,1488,-260,17.333984375,90.8203125,-15.869140625,-2549,-2450,-1959,16679,462,-10083,91.6204833984375,2.537841796875,-55.3875732421875,347,3.47,0
447,91700,1.154,252277,1154,1,136,2019,-368,0.06640625,0.98583984375,-0.1796875,53,-291,93,3.23486328125,-17.76123046875,5.67626953125,249,-1912,4881,18795,-328,32142,103.2440185546875,-1.8017578125,176.561279296875,356,3.56,0
448,91701,1.165,252288,1165,2,-376,1830,550,-0.18359375,0.8935546875,0.2685546875,12,-94,18,0.732421875,-5.7373046875,1.0986328125,657,-1132,-4200,12512,1360,1224,68.73046875,7.470703125,6.7236328125,358,3.58,0
449,91702,1.167,252290,1167,0,40,1604,-530,0.01953125,0.783203125,-0.2587890625,381,1310,-154,23.25439453125,79.9560546875,-9.3994140625,-2578,-2422,-1951,16751,483,-9853,92.0159912109375,2.6531982421875,-54.1241455078125,347,3.47,0
450,91703,1.168,252291,1168,1,119,1977,-300,0.05810546875,0.96533203125,-0.146484375,29,-185,84,1.77001953125,-11.29150390625,5.126953125,267,-1924,4806,18801,-334,32106,103.2769775390625,-1.834716796875,176.363525390625,356,3.56,0
451,91704,1.169,252292,1169,2,-393,1783,558,-0.19189453125,0.87060546875,0.2724609375,41,-128,75,2.50244140625,-7.8125,4.57763671875,660,-1151,-4222,12517,1345,1209,68.7579345703125,7.3883056640625,6.6412353515625,358,3.58,0
452,91705,1.174,252297,1174,0,5,1599,-560,0.00244140625,0.78076171875,-0.2734375,420,1252,-112,25.634765625,76.416015625,-6.8359375,-2587,-2424,-1959,16779,486,-9784,92.1697998046875,2.669677734375,-53.7451171875,347,3.47,0
453,91706,1.175,252298,1175,1,98,1948,-278,0.0478515625,0.951171875,-0.1357421875,14,-157,70,0.8544921875,-9.58251953125,4.2724609375,270,-1944,4816,18801,-335,32097,103.2769775390625,-1.8402099609375,176.3140869140625,356,3.56,0
454,91707,1.176,252299,1176,2,-396,1780,555,-0.193359375,0.869140625,0.27099609375,18,-142,98,1.0986328125,-8.6669921875,5.9814453125,657,-1159,-4217,12517,1337,1203,68.7579345703125,7.3443603515625,6.6082763671875,358,3.58,0
455,91708,1.181,252304,1181,0,-21,1589,-566,-0.01025390625,0.77587890625,-0.2763671875,470,1222,-73,28.6865234375,74.5849609375,-4.45556640625,-2603,-2438,-1927,16810,486,-9715,92.340087890625,2.669677734375,-53.3660888671875,347,3.47,0
456,91709,1.182,252305,1182,1,57,1917,-281,0.02783203125,0.93603515625,-0.13720703125,7,-145,31,0.42724609375,-8.85009765625,1.89208984375,242,-1927,4854,18802,-335,32082,103.282470703125,-1.8402099609375,176.231689453125,356,3.56,0
457,91710,1.183,252306,1183,2,-393,1783,556,-0.19189453125,0.87060546875,0.271484375,1,-150,118,0.06103515625,-9.1552734375,7.2021484375,665,-1115,-4190,12516,1328,1197,68.75244140625,7.294921875,6.5753173828125,358,3.58,0
458,91711,1.19,252313,1190,2,-373,1813,567,-0.18212890625,0.88525390625,0.27685546875,2,-141,152,0.1220703125,-8.60595703125,9.27734375,652,-1120,-4173,12516,1308,1188,68.75244140625,7.18505859375,6.52587890625,358,3.58,0
459,91712,1.195,252318,1195,0,-9,1697,-516,-0.00439453125,0.82861328125,-0.251953125,657,1236,82,40.10009765625,75.439453125,5.0048828125,-2618,-2415,-1901,16925,468,-9508,92.9718017578125,2.57080078125,-52.22900390625,348,3.48,0
460,91713,1.196,252319,1196,1,25,1965,-336,0.01220703125,0.95947265625,-0.1640625,25,-181,-38,1.52587890625,-11.04736328125,-2.3193359375,233,-1922,4841,18806,-324,32056,103.304443359375,-1.77978515625,176.0888671875,357,3.57,0
461,91714,1.197,252320,1197,2,-361,1841,570,-0.17626953125,0.89892578125,0.2783203125,-17,-142,178,-1.03759765625,-8.6669921875,10.8642578125,658,-1090,-4190,12514,1296,1184,68.741455078125,7.119140625,6.50390625,358,3.58,0
462,91715,1.202,252325,1202,0,62,1828,-585,0.0302734375,0.892578125,-0.28564453125,704,1288,193,42.96875,78.61328125,11.77978515625,-2625,-2422,-1891,17010,438,-9366,93.438720703125,2.406005859375,-51.448974609375,348,3.48,0
463,91716,1.204,252327,1204,2,-299,1914,575,-0.14599609375,0.9345703125,0.28076171875,-63,-137,204,-3.84521484375,-8.36181640625,12.451171875,684,-1099,-4150,12507,1270,1177,68.7030029296875,6.976318359375,6.4654541015625,358,3.58,0
464,91717,1.209,252332,1209,0,106,1885,-608,0.0517578125,0.92041015625,-0.296875,748,1296,258,45.654296875,79.1015625,15.7470703125,-2632,-2423,-1896,17056,418,-9295,93.69140625,2.296142578125,-51.0589599609375,348,3.48,0
465,91718,1.21,252333,1210,1,18,2028,-379,0.0087890625,0.990234375,-0.18505859375,33,-196,-75,2.01416015625,-11.962890625,-4.57763671875,280,-1960,4866,18809,-312,32037,103.3209228515625,-1.7138671875,175.9844970703125,357,3.57,0
466,91719,1.211,252334,1211,2,-266,1941,576,-0.1298828125,0.94775390625,0.28125,-78,-130,206,-4.7607421875,-7.9345703125,12.5732421875,676,-1091,-4175,12502,1258,1175,68.675537109375,6.910400390625,6.4544677734375,358,3.58,0
467,91720,1.217,252340,1217,1,52,2056,-412,0.025390625,1.00390625,-0.201171875,17,-202,-83,1.03759765625,-12.3291015625,-5.06591796875,256,-1976,4868,18812,-297,32018,103.33740234375,-1.6314697265625,175.880126953125,357,3.57,0
468,91721,1.224,252347,1224,2,-237,1961,584,-0.11572265625,0.95751953125,0.28515625,-93,-112,211,-5.67626953125,-6.8359375,12.87841796875,668,-1079,-4204,12497,1245,1174,68.6480712890625,6.8389892578125,6.448974609375,358,3.58,0
469,91722,1.224,252347,1224,0,244,2146,-586,0.119140625,1.0478515625,-0.2861328125,736,1153,383,44.921875,70.37353515625,23.37646484375,-2682,-2393,-1897,17189,343,-9099,94.4219970703125,1.8841552734375,-49.9822998046875,348,3.48,0
470,91723,1.224,252347,1224,1,89,2051,-429,0.04345703125,1.00146484375,-0.20947265625,12,-208,-79,0.732421875,-12.6953125,-4.82177734375,253,-1973,4866,18812,-291,32008,103.33740234375,-1.5985107421875,175.8251953125,357,3.57,0
471,91724,1.225,252348,1225,2,-197,1983,623,-0.09619140625,0.96826171875,0.30419921875,-120,-80,220,-7.32421875,-4.8828125,13.427734375,646,-1077,-4188,12484,1220,1174,68.57666015625,6.70166015625,6.448974609375,357,3.57,0
472,91725,1.231,252354,1231,1,188,2013,-462,0.091796875,0.98291015625,-0.2255859375,31,-202,-56,1.89208984375,-12.3291015625,-3.41796875,286,-1969,4847,18816,-279,31989,103.359375,-1.5325927734375,175.7208251953125,357,3.57,0
473,91726,1.232,252355,1232,2,-180,1989,652,-0.087890625,0.97119140625,0.318359375,-113,-60,220,-6.89697265625,-3.662109375,13.427734375,631,-1096,-4171,12479,1208,1175,68.5491943359375,6.6357421875,6.4544677734375,357,3.57,0
474,91727,1.238,252361,1238,1,247,1994,-476,0.12060546875,0.9736328125,-0.232421875,48,-193,-36,2.9296875,-11.77978515625,-2.197265625,265,-1940,4840,18819,-275,31980,103.3758544921875,-1.5106201171875,175.67138671875,357,3.57,0
475,91728,1.239,252362,1239,2,-149,1998,701,-0.07275390625,0.9755859375,0.34228515625,-81,-36,213,-4.94384765625,-2.197265625,13.00048828125,654,-1129,-4162,12470,1186,1180,68.499755859375,6.514892578125,6.48193359375,357,3.57,0
476,91729,1.245,252368,1245,1,317,1988,-489,0.15478515625,0.970703125,-0.23876953125,83,-178,-15,5.06591796875,-10.8642578125,-0.91552734375,270,-1938,4856,18824,-273,31971,103.4033203125,-1.4996337890625,175.6219482421875,357,3.57,0
477,91730,1.246,252369,1246,2,-138,2008,718,-0.0673828125,0.98046875,0.3505859375,-73,-18,212,-4.45556640625,-1.0986328125,12.939453125,661,-1147,-4166,12467,1175,1183,68.4832763671875,6.4544677734375,6.4984130859375,357,3.57,0
478,91731,1.253,252376,1253,2,-131,2021,730,-0.06396484375,0.98681640625,0.3564453125,-81,-3,212,-4.94384765625,-0.18310546875,12.939453125,686,-1146,-4148,12462,1165,1187,68.455810546875,6.3995361328125,6.5203857421875,357,3.57,0
479,91732,1.26,252383,1260,2,-123,2048,752,-0.06005859375,1.0,0.3671875,-111,21,208,-6.77490234375,1.28173828125,12.6953125,645,-1128,-4100,12452,1145,1198,68.40087890625,6.2896728515625,6.580810546875,357,3.57,0
480,91733,1.266,252389,1266,1,501,2090,-540,0.24462890625,1.0205078125,-0.263671875,152,16,27,9.27734375,0.9765625,1.64794921875,291,-1868,4838,18864,-274,31954,103.623046875,-1.505126953125,175.528564453125,357,3.57,0
481,91734,1.267,252390,1267,2,-127,2051,762,-0.06201171875,1.00146484375,0.3720703125,-109,24,200,-6.65283203125,1.46484375,12.20703125,634,-1128,-4098,12447,1136,1203,68.3734130859375,6.240234375,6.6082763671875,357,3.57,0
482,91735,1.274,252397,1274,2,-151,2035,773,-0.07373046875,0.99365234375,0.37744140625,-70,24,190,-4.2724609375,1.46484375,11.5966796875,630,-1149,-4147,12440,1118,1213,68.3349609375,6.141357421875,6.6632080078125,357,3.57,0
483,91736,1.28,252403,1280,1,510,2111,-500,0.2490234375,1.03076171875,-0.244140625,117,200,44,7.14111328125,12.20703125,2.685546875,291,-1863,4878,18876,-283,31974,103.68896484375,-1.5545654296875,175.638427734375,357,3.57,0
484,91737,1.281,252404,1281,2,-163,2019,772,-0.07958984375,0.98583984375,0.376953125,-59,33,176,-3.60107421875,2.01416015625,10.7421875,630,-1159,-4143,12438,1111,1218,68.323974609375,6.1029052734375,6.690673828125,357,3.57,0
485,91738,1.288,252411,1288,1,434,2077,-474,0.2119140625,1.01416015625,-0.2314453125,67,367,51,4.08935546875,22.39990234375,3.11279296875,301,-1887,4883,18882,-298,32012,103.721923828125,-1.636962890625,175.84716796875,357,3.57,0
486,91739,1.288,252411,1288,2,-179,1998,767,-0.08740234375,0.9755859375,0.37451171875,-64,42,163,-3.90625,2.5634765625,9.94873046875,635,-1167,-4124,12435,1104,1223,68.3074951171875,6.064453125,6.7181396484375,357,3.57,0
487,91740,1.295,252418,1295,2,-237,1944,766,-0.11572265625,0.94921875,0.3740234375,-81,57,147,-4.94384765625,3.47900390625,8.97216796875,646,-1145,-4095,12428,1092,1235,68.26904296875,5.99853515625,6.7840576171875,357,3.57,0
488,91741,1.301,252424,1301,1,300,2003,-476,0.146484375,0.97802734375,-0.232421875,1,444,36,0.06103515625,27.099609375,2.197265625,314,-1922,4861,18881,-314,32059,103.7164306640625,-1.724853515625,176.1053466796875,357,3.57,0
489,91742,1.302,252425,1302,2,-263,1926,774,-0.12841796875,0.9404296875,0.3779296875,-73,55,142,-4.45556640625,3.35693359375,8.6669921875,634,-1128,-4062,12425,1087,1240,68.2525634765625,5.9710693359375,6.8115234375,357,3.57,0
490,91743,1.308,252431,1308,1,152,1929,-489,0.07421875,0.94189453125,-0.23876953125,-33,384,17,-2.01416015625,23.4375,1.03759765625,294,-1895,4885,18876,-326,32101,103.68896484375,-1.790771484375,176.3360595703125,356,3.56,0
491,91744,1.309,252432,1309,2,-293,1888,789,-0.14306640625,0.921875,0.38525390625,-64,55,118,-3.90625,3.35693359375,7.2021484375,612,-1119,-4087,12419,1078,1250,68.2196044921875,5.921630859375,6.866455078125,357,3.57,0
492,91745,1.316,252439,1316,2,-304,1869,794,-0.1484375,0.91259765625,0.3876953125,-52,60,108,-3.173828125,3.662109375,6.591796875,610,-1130,-4062,12417,1074,1256,68.2086181640625,5.899658203125,6.8994140625,357,3.57,0
493,91746,1.323,252446,1323,2,-311,1859,796,-0.15185546875,0.90771484375,0.388671875,-36,60,98,-2.197265625,3.662109375,5.9814453125,612,-1123,-4030,12416,1071,1260,68.203125,5.8831787109375,6.92138671875,357,3.57,0
494,91747,1.329,252452,1329,1,-39,1933,-464,-0.01904296875,0.94384765625,-0.2265625,-57,233,-63,-3.47900390625,14.22119140625,-3.84521484375,301,-1887,4837,18864,-331,32164,103.623046875,-1.8182373046875,176.68212890625,356,3.56,0
495,91748,1.33,252453,1330,2,-311,1848,784,-0.15185546875,0.90234375,0.3828125,-34,47,85,-2.0751953125,2.86865234375,5.18798828125,611,-1138,-4082,12414,1065,1269,68.192138671875,5.8502197265625,6.9708251953125,357,3.57,0
496,91749,1.337,252460,1337,2,-302,1842,772,-0.1474609375,0.8994140625,0.376953125,-47,48,78,-2.86865234375,2.9296875,4.7607421875,620,-1144,-4060,12411,1063,1273,68.1756591796875,5.8392333984375,6.9927978515625,357,3.57,0
497,91750,1.344,252467,1344,2,-297,1835,760,-0.14501953125,0.89599609375,0.37109375,-61,52,76,-3.72314453125,3.173828125,4.638671875,606,-1142,-4071,12408,1060,1277,68.1591796875,5.82275390625,7.0147705078125,357,3.57,0
498,91751,1.352,252475,1352,2,-305,1813,739,-0.14892578125,0.88525390625,0.36083984375,-103,41,87,-6.28662109375,2.50244140625,5.31005859375,578,-1149,-4077,12398,1054,1284,68.104248046875,5.789794921875,7.05322265625,357,3.57,0
499,91752,1.358,252481,1358,2,-317,1799,736,-0.15478515625,0.87841796875,0.359375,-122,38,98,-7.4462890625,2.3193359375,5.9814453125,553,-1153,-4080,12392,1049,1288,68.0712890625,5.7623291015625,7.0751953125,357,3.57,0
500,91753,1.365,252488,1365,2,-334,1773,743,-0.1630859375,0.86572265625,0.36279296875,-127,8,131,-7.75146484375,0.48828125,7.99560546875,548,-1098,-4096,12379,1038,1294,67.9998779296875,5.701904296875,7.108154296875,357,3.57,0
501,91754,1.371,252494,1371,1,3,1943,-645,0.00146484375,0.94873046875,-0.31494140625,63,38,-63,3.84521484375,2.3193359375,-3.84521484375,245,-1908,4777,18857,-303,32219,103.5845947265625,-1.6644287109375,176.9842529296875,356,3.56,0
502,91755,1.372,252495,1372,2,-331,1762,748,-0.16162109375,0.8603515625,0.365234375,-119,1,135,-7.26318359375,0.06103515625,8.23974609375,556,-1114,-4077,12373,1031,1297,67.9669189453125,5.6634521484375,7.1246337890625,357,3.57,0
503,91756,1.379,252502,1379,2,-324,1757,753,-0.158203125,0.85791015625,0.36767578125,-103,-6,140,-6.28662109375,-0.3662109375,8.544921875,568,-1088,-4040,12368,1024,1299,67.939453125,5.625,7.1356201171875,357,3.57,0
504,91757,1.386,252509,1386,2,-303,1772,757,-0.14794921875,0.865234375,0.36962890625,-74,-20,145,-4.5166015625,-1.220703125,8.85009765625,611,-1102,-4081,12360,1010,1303,67.8955078125,5.548095703125,7.1575927734375,357,3.57,0
505,91758,1.393,252516,1393,2,-291,1789,755,-0.14208984375,0.87353515625,0.36865234375,-68,-33,147,-4.150390625,-2.01416015625,8.97216796875,577,-1070,-4124,12357,1002,1304,67.8790283203125,5.504150390625,7.1630859375,357,3.57,0
506,91759,1.4,252523,1400,2,-261,1832,746,-0.12744140625,0.89453125,0.3642578125,-60,-53,147,-3.662109375,-3.23486328125,8.97216796875,571,-1076,-4084,12351,985,1304,67.8460693359375,5.4107666015625,7.1630859375,356,3.56,0
507,91760,1.407,252530,1407,2,-245,1856,742,-0.11962890625,0.90625,0.3623046875,-61,-62,144,-3.72314453125,-3.7841796875,8.7890625,560,-1073,-4071,12347,977,1303,67.8240966796875,5.3668212890625,7.1575927734375,356,3.56,0
508,91761,1.416,252539,1416,2,-230,1880,739,-0.1123046875,0.91796875,0.36083984375,-64,-73,141,-3.90625,-4.45556640625,8.60595703125,571,-1049,-4077,12344,969,1302,67.8076171875,5.3228759765625,7.152099609375,355,3.55,0
509,91762,1.421,252544,1421,2,-201,1923,740,-0.09814453125,0.93896484375,0.361328125,-67,-88,131,-4.08935546875,-5.37109375,7.99560546875,574,-1046,-4070,12337,953,1298,67.7691650390625,5.2349853515625,7.130126953125,355,3.55,0
510,91763,1.428,252551,1428,2,-189,1940,742,-0.09228515625,0.947265625,0.3623046875,-68,-94,125,-4.150390625,-5.7373046875,7.62939453125,579,-1026,-4055,12333,945,1296,67.7471923828125,5.1910400390625,7.119140625,354,3.54,0
511,91764,1.435,252558,1435,2,-172,1964,747,-0.083984375,0.958984375,0.36474609375,-57,-98,109,-3.47900390625,-5.9814453125,6.65283203125,560,-1049,-4008,12326,931,1290,67.708740234375,5.1141357421875,7.086181640625,354,3.54,0
512,91765,1.444,252567,1444,0,38,2136,-111,0.0185546875,1.04296875,-0.05419921875,39,110,7,2.38037109375,6.7138671875,0.42724609375,-2818,-2385,-1734,17850,-6,-8622,98.052978515625,-0.032958984375,-47.362060546875,347,3.47,0
513,91766,1.444,252567,1444,1,-8,1973,-416,-0.00390625,0.96337890625,-0.203125,59,-114,-30,3.60107421875,-6.9580078125,-1.8310546875,196,-1894,4797,18900,-276,32210,103.82080078125,-1.51611328125,176.934814453125,354,3.54,0
514,91767,1.444,252567,1444,2,-169,1972,749,-0.08251953125,0.962890625,0.36572265625,-61,-101,98,-3.72314453125,-6.16455078125,5.9814453125,537,-1067,-3988,12323,924,1286,67.6922607421875,5.07568359375,7.064208984375,354,3.54,0
515,91768,1.449,252572,1449,2,-166,1980,754,-0.0810546875,0.966796875,0.3681640625,-60,-108,89,-3.662109375,-6.591796875,5.43212890625,533,-1093,-4003,12319,918,1282,67.6702880859375,5.042724609375,7.042236328125,354,3.54,0
516,91769,1.456,252579,1456,2,-162,1981,760,-0.0791015625,0.96728515625,0.37109375,-53,-108,62,-3.23486328125,-6.591796875,3.7841796875,529,-1074,-3999,12313,908,1274,67.6373291015625,4.98779296875,6.998291015625,354,3.54,0
517,91770,1.463,252586,1463,2,-158,1978,761,-0.0771484375,0.9658203125,0.37158203125,-47,-108,49,-2.86865234375,-6.591796875,2.99072265625,556,-1085,-4013,12310,905,1269,67.620849609375,4.9713134765625,6.9708251953125,353,3.53,0
518,91771,1.47,252593,1470,2,-155,1973,761,-0.07568359375,0.96337890625,0.37158203125,-39,-105,35,-2.38037109375,-6.40869140625,2.13623046875,553,-1068,-3995,12308,901,1264,67.60986328125,4.9493408203125,6.943359375,353,3.53,0
519,91772,1.477,252600,1477,2,-146,1961,758,-0.0712890625,0.95751953125,0.3701171875,-20,-100,13,-1.220703125,-6.103515625,0.79345703125,547,-1095,-4021,12305,897,1254,67.5933837890625,4.9273681640625,6.888427734375,353,3.53,0
520,91773,1.484,252607,1484,2,-144,1952,756,-0.0703125,0.953125,0.369140625,-8,-96,7,-0.48828125,-5.859375,0.42724609375,551,-1083,-4047,12305,895,1249,67.5933837890625,4.9163818359375,6.8609619140625,353,3.53,0
521,91774,1.491,252614,1491,2,-140,1940,752,-0.068359375,0.947265625,0.3671875,0,-89,-4,0.0,-5.43212890625,-0.244140625,546,-1054,-3983,12305,893,1240,67.5933837890625,4.9053955078125,6.8115234375,353,3.53,0
522,91775,1.498,252621,1498,2,-145,1925,748,-0.07080078125,0.93994140625,0.365234375,-3,-80,1,-0.18310546875,-4.8828125,0.06103515625,544,-1042,-3956,12305,892,1235,67.5933837890625,4.89990234375,6.7840576171875,353,3.53,0
523,91776,1.506,252629,1506,2,-151,1910,747,-0.07373046875,0.9326171875,0.36474609375,4,-76,4,0.244140625,-4.638671875,0.244140625,542,-1030,-3931,12305,891,1232,67.5933837890625,4.8944091796875,6.767578125,354,3.54,0
524,91777,1.512,252635,1512,2,-162,1890,749,-0.0791015625,0.9228515625,0.36572265625,21,-76,13,1.28173828125,-4.638671875,0.79345703125,539,-1020,-3889,12307,887,1224,67.6043701171875,4.8724365234375,6.7236328125,354,3.54,0
525,91778,1.519,252642,1519,2,-171,1880,749,-0.08349609375,0.91796875,0.36572265625,22,-75,22,1.3427734375,-4.57763671875,1.3427734375,552,-998,-3916,12308,885,1221,67.60986328125,4.8614501953125,6.7071533203125,354,3.54,0
526,91779,1.526,252649,1526,2,-185,1868,748,-0.09033203125,0.912109375,0.365234375,15,-70,32,0.91552734375,-4.2724609375,1.953125,553,-1007,-3872,12310,880,1214,67.620849609375,4.833984375,6.668701171875,354,3.54,0
527,91780,1.533,252656,1533,2,-190,1865,749,-0.0927734375,0.91064453125,0.36572265625,13,-71,34,0.79345703125,-4.33349609375,2.0751953125,561,-1025,-3907,12310,877,1211,67.620849609375,4.8175048828125,6.6522216796875,354,3.54,0
528,91781,1.54,252663,1540,2,-194,1862,751,-0.0947265625,0.9091796875,0.36669921875,14,-73,33,0.8544921875,-4.45556640625,2.01416015625,563,-1038,-3915,12311,875,1208,67.6263427734375,4.8065185546875,6.6357421875,355,3.55,0
529,91782,1.545,252668,1545,0,-7,1999,-508,-0.00341796875,0.97607421875,-0.248046875,8,-295,-21,0.48828125,-18.00537109375,-1.28173828125,-2772,-2295,-1759,17911,5,-8856,98.3880615234375,0.0274658203125,-48.6474609375,348,3.48,0
530,91783,1.547,252670,1547,2,-196,1861,754,-0.095703125,0.90869140625,0.3681640625,24,-61,27,1.46484375,-3.72314453125,1.64794921875,550,-1070,-3941,12314,871,1203,67.642822265625,4.7845458984375,6.6082763671875,355,3.55,0
531,91784,1.554,252677,1554,2,-197,1862,754,-0.09619140625,0.9091796875,0.3681640625,23,-63,23,1.40380859375,-3.84521484375,1.40380859375,556,-1086,-3964,12315,869,1200,67.6483154296875,4.7735595703125,6.591796875,355,3.55,0
532,91785,1.561,252684,1561,2,-195,1871,751,-0.09521484375,0.91357421875,0.36669921875,19,-56,15,1.15966796875,-3.41796875,0.91552734375,529,-1093,-3964,12317,866,1194,67.6593017578125,4.757080078125,6.558837890625,355,3.55,0
