record_index,sequence,time_s,tick_ms,tick_elapsed_ms,device_id,accel_x_raw,accel_y_raw,accel_z_raw,accel_x_g,accel_y_g,accel_z_g,gyro_x_raw,gyro_y_raw,gyro_z_raw,gyro_x_dps,gyro_y_dps,gyro_z_dps,mag_x_raw,mag_y_raw,mag_z_raw,angle_x_raw,angle_y_raw,angle_z_raw,angle_x_deg,angle_y_deg,angle_z_deg,battery_raw,battery_voltage,sequence_gap_before
0,25332,0.0,67706,0,0,-3,2000,-394,-0.00146484375,0.9765625,-0.1923828125,-6,7,6,-0.3662109375,0.42724609375,0.3662109375,2682,-4233,-5752,18030,636,4986,99.041748046875,3.49365234375,27.388916015625,349,3.49,0
1,25333,0.0,67706,0,1,29,1989,-442,0.01416015625,0.97119140625,-0.2158203125,5,-22,3,0.30517578125,-1.3427734375,0.18310546875,3498,-4701,-2178,18546,-174,2763,101.876220703125,-0.955810546875,15.1776123046875,355,3.55,0
2,25334,0.004,67710,4,0,-9,2006,-391,-0.00439453125,0.9794921875,-0.19091796875,2,-15,9,0.1220703125,-0.91552734375,0.54931640625,2625,-4242,-5791,18033,629,4982,99.0582275390625,3.4552001953125,27.366943359375,349,3.49,0
3,25335,0.005,67711,5,1,23,1993,-444,0.01123046875,0.97314453125,-0.216796875,12,-17,-1,0.732421875,-1.03759765625,-0.06103515625,3496,-4699,-2197,18547,-173,2764,101.8817138671875,-0.9503173828125,15.18310546875,355,3.55,0
4,25336,0.006,67712,6,2,52,1918,733,0.025390625,0.9365234375,0.35791015625,1,-8,14,0.06103515625,-0.48828125,0.8544921875,-2272,-1962,3842,12687,-279,-27285,69.6917724609375,-1.5325927734375,-149.8809814453125,357,3.57,0
5,25337,0.011,67717,11,0,-9,2011,-388,-0.00439453125,0.98193359375,-0.189453125,0,-20,11,0.0,-1.220703125,0.67138671875,2625,-4245,-5827,18033,629,4982,99.0582275390625,3.4552001953125,27.366943359375,349,3.49,0
6,25338,0.012,67718,12,1,25,1995,-444,0.01220703125,0.97412109375,-0.216796875,13,-16,1,0.79345703125,-0.9765625,0.06103515625,3484,-4718,-2187,18547,-173,2764,101.8817138671875,-0.9503173828125,15.18310546875,355,3.55,0
7,25339,0.013,67719,13,2,50,1921,732,0.0244140625,0.93798828125,0.357421875,-1,-12,14,-0.06103515625,-0.732421875,0.8544921875,-2288,-1986,3832,12687,-279,-27286,69.6917724609375,-1.5325927734375,-149.886474609375,357,3.57,0
8,25340,0.018,67724,18,0,-16,2011,-383,-0.0078125,0.98193359375,-0.18701171875,2,-24,12,0.1220703125,-1.46484375,0.732421875,2661,-4237,-5824,18033,629,4979,99.0582275390625,3.4552001953125,27.3504638671875,349,3.49,0
9,25341,0.019,67725,19,1,23,1993,-439,0.01123046875,0.97314453125,-0.21435546875,-2,-9,-1,-0.1220703125,-0.54931640625,-0.06103515625,3476,-4719,-2195,18547,-173,2764,101.8817138671875,-0.9503173828125,15.18310546875,356,3.56,0
10,25342,0.02,67726,20,2,50,1921,730,0.0244140625,0.93798828125,0.3564453125,-3,-11,13,-0.18310546875,-0.67138671875,0.79345703125,-2265,-1965,3826,12687,-279,-27286,69.6917724609375,-1.5325927734375,-149.886474609375,357,3.57,0
11,25343,0.025,67731,25,0,-19,2013,-382,-0.00927734375,0.98291015625,-0.1865234375,-1,-29,12,-0.06103515625,-1.77001953125,0.732421875,2649,-4257,-5869,18034,625,4980,99.063720703125,3.4332275390625,27.35595703125,349,3.49,0
12,25344,0.026,67732,26,1,27,1987,-432,0.01318359375,0.97021484375,-0.2109375,-1,-3,4,-0.06103515625,-0.18310546875,0.244140625,3490,-4717,-2225,18548,-173,2764,101.88720703125,-0.9503173828125,15.18310546875,356,3.56,0
13,25345,0.027,67733,27,2,48,1919,729,0.0234375,0.93701171875,0.35595703125,-7,-5,9,-0.42724609375,-0.30517578125,0.54931640625,-2269,-1973,3807,12685,-279,-27286,69.6807861328125,-1.5325927734375,-149.886474609375,357,3.57,0
14,25346,0.032,67738,32,0,-26,2008,-378,-0.0126953125,0.98046875,-0.1845703125,-5,-34,12,-0.30517578125,-2.0751953125,0.732421875,2650,-4256,-5853,18034,625,4977,99.063720703125,3.4332275390625,27.3394775390625,349,3.49,0
15,25347,0.033,67739,33,1,30,1984,-428,0.0146484375,0.96875,-0.208984375,-2,0,3,-0.1220703125,0.0,0.18310546875,3480,-4708,-2221,18548,-173,2764,101.88720703125,-0.9503173828125,15.18310546875,356,3.56,0
16,25348,0.034,67740,34,2,48,1917,730,0.0234375,0.93603515625,0.3564453125,-10,-6,8,-0.6103515625,-0.3662109375,0.48828125,-2267,-1971,3827,12685,-279,-27287,69.6807861328125,-1.5325927734375,-149.8919677734375,357,3.57,0
17,25349,0.039,67745,39,0,-25,2009,-373,-0.01220703125,0.98095703125,-0.18212890625,-11,-37,12,-0.67138671875,-2.25830078125,0.732421875,2687,-4261,-5858,18034,625,4977,99.063720703125,3.4332275390625,27.3394775390625,349,3.49,0
18,25350,0.04,67746,40,1,28,1984,-435,0.013671875,0.96875,-0.21240234375,6,-3,6,0.3662109375,-0.18310546875,0.3662109375,3461,-4704,-2213,18548,-173,2764,101.88720703125,-0.9503173828125,15.18310546875,356,3.56,0
19,25351,0.041,67747,41,2,48,1914,732,0.0234375,0.9345703125,0.357421875,-10,-8,7,-0.6103515625,-0.48828125,0.42724609375,-2227,-1979,3844,12685,-279,-27287,69.6807861328125,-1.5325927734375,-149.8919677734375,357,3.57,0
20,25352,0.046,67752,46,0,-26,2003,-372,-0.0126953125,0.97802734375,-0.181640625,-8,-34,9,-0.48828125,-2.0751953125,0.54931640625,2676,-4258,-5852,18035,622,4978,99.0692138671875,3.416748046875,27.344970703125,349,3.49,0
21,25353,0.047,67753,47,1,31,1986,-433,0.01513671875,0.9697265625,-0.21142578125,4,-9,4,0.244140625,-0.54931640625,0.244140625,3453,-4706,-2231,18549,-173,2765,101.8927001953125,-0.9503173828125,15.1885986328125,356,3.56,0
22,25354,0.048,67754,48,2,50,1909,738,0.0244140625,0.93212890625,0.3603515625,-7,-16,6,-0.42724609375,-0.9765625,0.3662109375,-2233,-1971,3870,12684,-279,-27287,69.67529296875,-1.5325927734375,-149.8919677734375,357,3.57,0
23,25355,0.053,67759,53,0,-27,1997,-368,-0.01318359375,0.97509765625,-0.1796875,-5,-27,7,-0.30517578125,-1.64794921875,0.42724609375,2654,-4215,-5847,18035,622,4975,99.0692138671875,3.416748046875,27.3284912109375,349,3.49,0
24,25356,0.054,67760,54,1,41,1987,-424,0.02001953125,0.97021484375,-0.20703125,-1,-12,4,-0.06103515625,-0.732421875,0.244140625,3490,-4715,-2133,18549,-173,2765,101.8927001953125,-0.9503173828125,15.1885986328125,356,3.56,0
25,25357,0.055,67761,55,2,52,1907,740,0.025390625,0.93115234375,0.361328125,-7,-16,5,-0.42724609375,-0.9765625,0.30517578125,-2248,-1948,3869,12684,-279,-27289,69.67529296875,-1.5325927734375,-149.9029541015625,357,3.57,0
26,25358,0.06,67766,60,0,-28,2000,-369,-0.013671875,0.9765625,-0.18017578125,-5,-24,3,-0.30517578125,-1.46484375,0.18310546875,2652,-4245,-5841,18035,622,4975,99.0692138671875,3.416748046875,27.3284912109375,349,3.49,0
27,25359,0.061,67767,61,1,46,1984,-421,0.0224609375,0.96875,-0.20556640625,6,-10,6,0.3662109375,-0.6103515625,0.3662109375,3517,-4713,-2092,18549,-173,2765,101.8927001953125,-0.9503173828125,15.1885986328125,356,3.56,0
28,25360,0.062,67768,62,2,56,1905,743,0.02734375,0.93017578125,0.36279296875,-10,-12,3,-0.6103515625,-0.732421875,0.18310546875,-2293,-1952,3845,12683,-279,-27289,69.6697998046875,-1.5325927734375,-149.9029541015625,357,3.57,0
29,25361,0.073,67779,73,0,-28,2000,-369,-0.013671875,0.9765625,-0.18017578125,-5,-24,3,-0.30517578125,-1.46484375,0.18310546875,2652,-4245,-5841,18035,622,4975,99.0692138671875,3.416748046875,27.3284912109375,349,3.49,0
30,25362,0.073,67779,73,1,45,1987,-419,0.02197265625,0.97021484375,-0.20458984375,6,-8,1,0.3662109375,-0.48828125,0.06103515625,3512,-4710,-2096,18549,-173,2765,101.8927001953125,-0.9503173828125,15.1885986328125,356,3.56,0
31,25363,0.073,67779,73,2,57,1905,744,0.02783203125,0.93017578125,0.36328125,-11,-10,3,-0.67138671875,-0.6103515625,0.18310546875,-2304,-1944,3846,12683,-279,-27289,69.6697998046875,-1.5325927734375,-149.9029541015625,357,3.57,0
32,25364,0.074,67780,74,0,-22,2003,-376,-0.0107421875,0.97802734375,-0.18359375,-7,-23,5,-0.42724609375,-1.40380859375,0.30517578125,2654,-4256,-5871,18036,619,4972,99.07470703125,3.4002685546875,27.31201171875,349,3.49,0
33,25365,0.075,67781,75,1,42,1995,-429,0.0205078125,0.97412109375,-0.20947265625,5,-13,-3,0.30517578125,-0.79345703125,-0.18310546875,3522,-4710,-2102,18549,-173,2765,101.8927001953125,-0.9503173828125,15.1885986328125,356,3.56,0
34,25366,0.076,67782,76,2,57,1904,745,0.02783203125,0.9296875,0.36376953125,-11,-9,2,-0.67138671875,-0.54931640625,0.1220703125,-2304,-1942,3832,12683,-279,-27290,69.6697998046875,-1.5325927734375,-149.908447265625,357,3.57,0
35,25367,0.081,67787,81,0,-24,2004,-381,-0.01171875,0.978515625,-0.18603515625,-10,-23,5,-0.6103515625,-1.40380859375,0.30517578125,2657,-4279,-5871,18036,619,4972,99.07470703125,3.4002685546875,27.31201171875,348,3.48,0
36,25368,0.082,67788,82,1,43,1997,-425,0.02099609375,0.97509765625,-0.20751953125,5,-17,-3,0.30517578125,-1.03759765625,-0.18310546875,3517,-4716,-2165,18549,-173,2765,101.8927001953125,-0.9503173828125,15.1885986328125,356,3.56,0
37,25369,0.083,67789,83,2,56,1902,745,0.02734375,0.9287109375,0.36376953125,-6,-13,3,-0.3662109375,-0.79345703125,0.18310546875,-2305,-2041,3831,12681,-279,-27290,69.6588134765625,-1.5325927734375,-149.908447265625,357,3.57,0
38,25370,0.088,67794,88,0,-19,2003,-384,-0.00927734375,0.97802734375,-0.1875,-12,-20,7,-0.732421875,-1.220703125,0.42724609375,2645,-4246,-5866,18037,616,4973,99.0802001953125,3.3837890625,27.3175048828125,348,3.48,0
39,25371,0.089,67795,89,1,44,1992,-426,0.021484375,0.97265625,-0.2080078125,0,-18,-3,0.0,-1.0986328125,-0.18310546875,3536,-4726,-2162,18549,-173,2765,101.8927001953125,-0.9503173828125,15.1885986328125,356,3.56,0
40,25372,0.09,67796,90,2,56,1902,745,0.02734375,0.9287109375,0.36376953125,-2,-14,4,-0.1220703125,-0.8544921875,0.244140625,-2272,-2076,3838,12681,-279,-27290,69.6588134765625,-1.5325927734375,-149.908447265625,357,3.57,0
41,25373,0.095,67801,95,0,-20,2001,-386,-0.009765625,0.97705078125,-0.1884765625,-11,-18,6,-0.67138671875,-1.0986328125,0.3662109375,2655,-4241,-5850,18037,616,4970,99.0802001953125,3.3837890625,27.301025390625,348,3.48,0
42,25374,0.096,67802,96,1,43,1997,-427,0.02099609375,0.97509765625,-0.20849609375,-6,-14,-4,-0.3662109375,-0.8544921875,-0.244140625,3569,-4693,-2159,18549,-173,2765,101.8927001953125,-0.9503173828125,15.1885986328125,356,3.56,0
43,25375,0.097,67803,97,2,56,1903,742,0.02734375,0.92919921875,0.3623046875,2,-16,5,0.1220703125,-0.9765625,0.30517578125,-2298,-2063,3932,12681,-279,-27291,69.6588134765625,-1.5325927734375,-149.9139404296875,357,3.57,0
44,25376,0.102,67808,102,0,-20,2001,-386,-0.009765625,0.97705078125,-0.1884765625,-11,-18,6,-0.67138671875,-1.0986328125,0.3662109375,2655,-4241,-5850,18037,616,4970,99.0802001953125,3.3837890625,27.301025390625,348,3.48,0
45,25377,0.103,67809,103,1,43,1996,-435,0.02099609375,0.974609375,-0.21240234375,-2,-16,-5,-0.1220703125,-0.9765625,-0.30517578125,3550,-4682,-2176,18549,-173,2765,101.8927001953125,-0.9503173828125,15.1885986328125,356,3.56,0
46,25378,0.104,67810,104,2,57,1904,739,0.02783203125,0.9296875,0.36083984375,0,-16,5,0.0,-0.9765625,0.30517578125,-2310,-2071,3969,12680,-279,-27291,69.6533203125,-1.5325927734375,-149.9139404296875,357,3.57,0
47,25379,0.109,67815,109,0,-8,2000,-400,-0.00390625,0.9765625,-0.1953125,-5,-22,7,-0.30517578125,-1.3427734375,0.42724609375,2650,-4226,-5845,18039,613,4971,99.0911865234375,3.3673095703125,27.3065185546875,349,3.49,0
48,25380,0.11,67816,110,1,40,1992,-438,0.01953125,0.97265625,-0.2138671875,3,-22,-2,0.18310546875,-1.3427734375,-0.1220703125,3540,-4668,-2130,18550,-173,2766,101.898193359375,-0.9503173828125,15.194091796875,356,3.56,0
49,25381,0.111,67817,111,2,58,1905,737,0.0283203125,0.93017578125,0.35986328125,-3,-12,5,-0.18310546875,-0.732421875,0.30517578125,-2298,-2071,3918,12680,-279,-27291,69.6533203125,-1.5325927734375,-149.9139404296875,356,3.56,0
50,25382,0.116,67822,116,0,-2,2002,-402,-0.0009765625,0.9775390625,-0.1962890625,-2,-22,7,-0.1220703125,-1.3427734375,0.42724609375,2656,-4228,-5837,18039,613,4967,99.0911865234375,3.3673095703125,27.2845458984375,349,3.49,0
51,25383,0.117,67823,117,1,38,1990,-440,0.0185546875,0.9716796875,-0.21484375,8,-25,-3,0.48828125,-1.52587890625,-0.18310546875,3524,-4666,-2139,18550,-173,2766,101.898193359375,-0.9503173828125,15.194091796875,356,3.56,0
52,25384,0.118,67824,118,2,57,1907,735,0.02783203125,0.93115234375,0.35888671875,-9,-5,4,-0.54931640625,-0.30517578125,0.244140625,-2280,-2062,3919,12680,-279,-27292,69.6533203125,-1.5325927734375,-149.91943359375,356,3.56,0
53,25385,0.123,67829,123,0,-1,2010,-397,-0.00048828125,0.9814453125,-0.19384765625,0,-24,9,0.0,-1.46484375,0.54931640625,2677,-4245,-5917,18040,610,4969,99.0966796875,3.350830078125,27.2955322265625,349,3.49,0
54,25386,0.124,67830,124,1,40,1996,-430,0.01953125,0.974609375,-0.2099609375,12,-17,-1,0.732421875,-1.03759765625,-0.06103515625,3532,-4704,-2141,18550,-173,2766,101.898193359375,-0.9503173828125,15.194091796875,356,3.56,0
55,25387,0.125,67831,125,2,55,1909,735,0.02685546875,0.93212890625,0.35888671875,-10,-4,5,-0.6103515625,-0.244140625,0.30517578125,-2274,-2054,3960,12678,-279,-27292,69.642333984375,-1.5325927734375,-149.91943359375,356,3.56,0
56,25388,0.136,67842,136,0,2,2013,-395,0.0009765625,0.98291015625,-0.19287109375,5,-23,10,0.30517578125,-1.40380859375,0.6103515625,2702,-4239,-5896,18040,610,4969,99.0966796875,3.350830078125,27.2955322265625,349,3.49,0
57,25389,0.136,67842,136,1,42,1997,-427,0.0205078125,0.97509765625,-0.20849609375,10,-10,0,0.6103515625,-0.6103515625,0.0,3553,-4701,-2147,18550,-173,2766,101.898193359375,-0.9503173828125,15.194091796875,356,3.56,0
58,25390,0.136,67842,136,2,53,1911,735,0.02587890625,0.93310546875,0.35888671875,-11,-5,7,-0.67138671875,-0.30517578125,0.42724609375,-2284,-2045,3952,12678,-279,-27292,69.642333984375,-1.5325927734375,-149.91943359375,356,3.56,0
59,25391,0.137,67843,137,0,2,2013,-395,0.0009765625,0.98291015625,-0.19287109375,5,-23,10,0.30517578125,-1.40380859375,0.6103515625,2702,-4239,-5896,18040,610,4969,99.0966796875,3.350830078125,27.2955322265625,349,3.49,0
60,25392,0.138,67844,138,1,39,1998,-433,0.01904296875,0.9755859375,-0.21142578125,6,-6,-2,0.3662109375,-0.3662109375,-0.1220703125,3553,-4695,-2115,18550,-173,2766,101.898193359375,-0.9503173828125,15.194091796875,356,3.56,0
61,25393,0.139,67845,139,2,53,1913,738,0.02587890625,0.93408203125,0.3603515625,-9,-10,10,-0.54931640625,-0.6103515625,0.6103515625,-2323,-2026,3898,12678,-279,-27294,69.642333984375,-1.5325927734375,-149.930419921875,356,3.56,0
62,25394,0.144,67850,144,0,-5,2018,-385,-0.00244140625,0.9853515625,-0.18798828125,4,-23,10,0.244140625,-1.40380859375,0.6103515625,2673,-4257,-5843,18041,607,4967,99.1021728515625,3.3343505859375,27.2845458984375,349,3.49,0
63,25395,0.145,67851,145,1,32,2000,-434,0.015625,0.9765625,-0.2119140625,2,3,1,0.1220703125,0.18310546875,0.06103515625,3541,-4697,-2132,18550,-174,2766,101.898193359375,-0.955810546875,15.194091796875,356,3.56,0
64,25396,0.152,67858,152,2,53,1915,739,0.02587890625,0.93505859375,0.36083984375,-8,-13,11,-0.48828125,-0.79345703125,0.67138671875,-2314,-2014,3948,12677,-279,-27293,69.6368408203125,-1.5325927734375,-149.9249267578125,356,3.56,0
65,25397,0.152,67858,152,0,-4,2015,-383,-0.001953125,0.98388671875,-0.18701171875,1,-25,8,0.06103515625,-1.52587890625,0.48828125,2656,-4274,-5889,18041,607,4967,99.1021728515625,3.3343505859375,27.2845458984375,349,3.49,0
66,25398,0.152,67858,152,1,29,2000,-431,0.01416015625,0.9765625,-0.21044921875,0,-2,1,0.0,-0.1220703125,0.06103515625,3543,-4691,-2134,18550,-174,2766,101.898193359375,-0.955810546875,15.194091796875,356,3.56,0
67,25399,0.153,67859,153,2,58,1915,743,0.0283203125,0.93505859375,0.36279296875,-6,-8,12,-0.3662109375,-0.48828125,0.732421875,-2297,-2017,4013,12677,-279,-27295,69.6368408203125,-1.5325927734375,-149.9359130859375,356,3.56,0
68,25400,0.158,67864,158,0,2,2018,-379,0.0009765625,0.9853515625,-0.18505859375,-6,-26,3,-0.3662109375,-1.5869140625,0.18310546875,2647,-4265,-5850,18041,607,4963,99.1021728515625,3.3343505859375,27.2625732421875,349,3.49,0
69,25401,0.159,67865,159,1,30,2000,-432,0.0146484375,0.9765625,-0.2109375,-3,0,2,-0.18310546875,0.0,0.1220703125,3550,-4701,-2182,18550,-174,2766,101.898193359375,-0.955810546875,15.194091796875,356,3.56,0
70,25402,0.16,67866,160,2,60,1916,744,0.029296875,0.935546875,0.36328125,-6,-4,11,-0.3662109375,-0.244140625,0.67138671875,-2281,-2004,4027,12677,-279,-27295,69.6368408203125,-1.5325927734375,-149.9359130859375,356,3.56,0
71,25403,0.165,67871,165,0,3,2016,-374,0.00146484375,0.984375,-0.1826171875,-11,-26,1,-0.67138671875,-1.5869140625,0.06103515625,2657,-4227,-5834,18042,603,4965,99.107666015625,3.3123779296875,27.2735595703125,349,3.49,0
72,25404,0.166,67872,166,1,33,2000,-425,0.01611328125,0.9765625,-0.20751953125,0,0,2,0.0,0.0,0.1220703125,3554,-4685,-2194,18551,-174,2767,101.9036865234375,-0.955810546875,15.1995849609375,356,3.56,0
73,25405,0.167,67873,167,2,61,1917,744,0.02978515625,0.93603515625,0.36328125,-5,-6,9,-0.30517578125,-0.3662109375,0.54931640625,-2275,-2000,3971,12675,-279,-27295,69.6258544921875,-1.5325927734375,-149.9359130859375,356,3.56,0
74,25406,0.172,67878,172,0,3,2012,-372,0.00146484375,0.982421875,-0.181640625,-11,-22,-2,-0.67138671875,-1.3427734375,-0.1220703125,2652,-4227,-5813,18042,603,4965,99.107666015625,3.3123779296875,27.2735595703125,349,3.49,0
75,25407,0.173,67879,173,1,33,2003,-424,0.01611328125,0.97802734375,-0.20703125,-2,-3,4,-0.1220703125,-0.18310546875,0.244140625,3533,-4694,-2193,18551,-174,2767,101.9036865234375,-0.955810546875,15.1995849609375,356,3.56,0
76,25408,0.174,67880,174,2,61,1916,746,0.02978515625,0.935546875,0.3642578125,-1,-5,11,-0.06103515625,-0.30517578125,0.67138671875,-2277,-1980,3890,12675,-279,-27296,69.6258544921875,-1.5325927734375,-149.94140625,356,3.56,0
77,25409,0.179,67885,179,0,1,2005,-377,0.00048828125,0.97900390625,-0.18408203125,-16,-13,-2,-0.9765625,-0.79345703125,-0.1220703125,2651,-4181,-5823,18042,603,4961,99.107666015625,3.3123779296875,27.2515869140625,349,3.49,0
78,25410,0.18,67886,180,1,34,1994,-423,0.0166015625,0.9736328125,-0.20654296875,-10,-4,2,-0.6103515625,-0.244140625,0.1220703125,3545,-4683,-2171,18551,-174,2767,101.9036865234375,-0.955810546875,15.1995849609375,356,3.56,0
79,25411,0.181,67887,181,2,61,1914,746,0.02978515625,0.9345703125,0.3642578125,4,-3,12,0.244140625,-0.18310546875,0.732421875,-2303,-1970,3902,12675,-279,-27296,69.6258544921875,-1.5325927734375,-149.94140625,356,3.56,0
80,25412,0.186,67892,186,0,-5,2003,-380,-0.00244140625,0.97802734375,-0.185546875,-13,-8,-2,-0.79345703125,-0.48828125,-0.1220703125,2652,-4207,-5838,18044,600,4963,99.11865234375,3.2958984375,27.2625732421875,349,3.49,0
81,25413,0.187,67893,187,1,34,1990,-420,0.0166015625,0.9716796875,-0.205078125,-13,-6,2,-0.79345703125,-0.3662109375,0.1220703125,3523,-4681,-2190,18551,-174,2767,101.9036865234375,-0.955810546875,15.1995849609375,355,3.55,0
82,25414,0.188,67894,188,2,61,1912,744,0.02978515625,0.93359375,0.36328125,6,0,12,0.3662109375,0.0,0.732421875,-2305,-1965,3937,12674,-279,-27296,69.620361328125,-1.5325927734375,-149.94140625,355,3.55,0
83,25415,0.193,67899,193,0,-14,2003,-388,-0.0068359375,0.97802734375,-0.189453125,-11,-3,1,-0.67138671875,-0.18310546875,0.06103515625,2646,-4213,-5834,18043,600,4959,99.1131591796875,3.2958984375,27.2406005859375,349,3.49,0
84,25416,0.194,67900,194,1,32,1984,-420,0.015625,0.96875,-0.205078125,-12,-10,2,-0.732421875,-0.6103515625,0.1220703125,3525,-4668,-2184,18551,-174,2767,101.9036865234375,-0.955810546875,15.1995849609375,355,3.55,0
85,25417,0.195,67901,195,2,60,1911,743,0.029296875,0.93310546875,0.36279296875,5,1,12,0.30517578125,0.06103515625,0.732421875,-2315,-1966,3893,12674,-279,-27297,69.620361328125,-1.5325927734375,-149.9468994140625,355,3.55,0
86,25418,0.2,67906,200,0,-11,1999,-386,-0.00537109375,0.97607421875,-0.1884765625,-10,-1,2,-0.6103515625,-0.06103515625,0.1220703125,2643,-4228,-5836,18043,600,4959,99.1131591796875,3.2958984375,27.2406005859375,349,3.49,0
87,25419,0.201,67907,201,1,33,1977,-424,0.01611328125,0.96533203125,-0.20703125,1,-21,-1,0.06103515625,-1.28173828125,-0.06103515625,3512,-4658,-2121,18551,-174,2767,101.9036865234375,-0.955810546875,15.1995849609375,355,3.55,0
88,25420,0.202,67908,202,2,60,1910,743,0.029296875,0.9326171875,0.36279296875,6,0,13,0.3662109375,0.0,0.79345703125,-2313,-1950,3862,12674,-279,-27297,69.620361328125,-1.5325927734375,-149.9468994140625,355,3.55,0
89,25421,0.207,67913,207,0,-15,1999,-386,-0.00732421875,0.97607421875,-0.1884765625,-9,4,3,-0.54931640625,0.244140625,0.18310546875,2638,-4239,-5831,18045,597,4960,99.1241455078125,3.2794189453125,27.24609375,349,3.49,0
90,25422,0.208,67914,208,1,27,1981,-428,0.01318359375,0.96728515625,-0.208984375,4,-25,1,0.244140625,-1.52587890625,0.06103515625,3502,-4664,-2086,18551,-174,2767,101.9036865234375,-0.955810546875,15.1995849609375,356,3.56,0
91,25423,0.216,67922,216,2,61,1909,741,0.02978515625,0.93212890625,0.36181640625,7,-3,13,0.42724609375,-0.18310546875,0.79345703125,-2296,-1973,3843,12672,-279,-27297,69.609375,-1.5325927734375,-149.9468994140625,356,3.56,0
92,25424,0.216,67922,216,0,-14,1998,-383,-0.0068359375,0.9755859375,-0.18701171875,-11,11,5,-0.67138671875,0.67138671875,0.30517578125,2642,-4230,-5865,18045,597,4957,99.1241455078125,3.2794189453125,27.2296142578125,349,3.49,0
93,25425,0.216,67922,216,1,32,1985,-433,0.015625,0.96923828125,-0.21142578125,2,-25,-6,0.1220703125,-1.52587890625,-0.3662109375,3541,-4642,-2055,18551,-174,2767,101.9036865234375,-0.955810546875,15.1995849609375,356,3.56,0
94,25426,0.216,67922,216,2,62,1909,739,0.0302734375,0.93212890625,0.36083984375,6,-2,14,0.3662109375,-0.1220703125,0.8544921875,-2300,-1963,3827,12672,-279,-27298,69.609375,-1.5325927734375,-149.952392578125,356,3.56,0
95,25427,0.221,67927,221,0,-11,2000,-388,-0.00537109375,0.9765625,-0.189453125,-5,14,5,-0.30517578125,0.8544921875,0.30517578125,2625,-4232,-5846,18045,597,4957,99.1241455078125,3.2794189453125,27.2296142578125,349,3.49,0
96,25428,0.222,67928,222,1,34,1985,-435,0.0166015625,0.96923828125,-0.21240234375,6,-18,-6,0.3662109375,-1.0986328125,-0.3662109375,3533,-4647,-2074,18551,-174,2767,101.9036865234375,-0.955810546875,15.1995849609375,356,3.56,0
97,25429,0.223,67929,223,2,65,1908,735,0.03173828125,0.931640625,0.35888671875,3,4,11,0.18310546875,0.244140625,0.67138671875,-2327,-1982,3774,12670,-279,-27298,69.598388671875,-1.5325927734375,-149.952392578125,356,3.56,0
98,25430,0.228,67934,228,0,-11,2000,-388,-0.00537109375,0.9765625,-0.189453125,-5,14,5,-0.30517578125,0.8544921875,0.30517578125,2625,-4232,-5846,18045,597,4957,99.1241455078125,3.2794189453125,27.2296142578125,349,3.49,0
99,25431,0.229,67935,229,1,38,1983,-440,0.0185546875,0.96826171875,-0.21484375,8,-11,-7,0.48828125,-0.67138671875,-0.42724609375,3529,-4659,-2089,18551,-174,2768,101.9036865234375,-0.955810546875,15.205078125,357,3.57,0
100,25432,0.23,67936,230,2,66,1907,734,0.0322265625,0.93115234375,0.3583984375,-1,9,11,-0.06103515625,0.54931640625,0.67138671875,-2339,-1986,3806,12670,-279,-27298,69.598388671875,-1.5325927734375,-149.952392578125,356,3.56,0
101,25433,0.235,67941,235,0,-13,2000,-393,-0.00634765625,0.9765625,-0.19189453125,0,4,8,0.0,0.244140625,0.48828125,2658,-4238,-5805,18046,593,4955,99.129638671875,3.2574462890625,27.2186279296875,349,3.49,0
102,25434,0.236,67942,236,1,39,1989,-443,0.01904296875,0.97119140625,-0.21630859375,10,-8,-2,0.6103515625,-0.48828125,-0.1220703125,3543,-4682,-2055,18551,-174,2768,101.9036865234375,-0.955810546875,15.205078125,357,3.57,0
103,25435,0.237,67943,237,2,64,1907,733,0.03125,0.93115234375,0.35791015625,-4,11,10,-0.244140625,0.67138671875,0.6103515625,-2313,-1961,3808,12670,-279,-27299,69.598388671875,-1.5325927734375,-149.9578857421875,356,3.56,0
104,25436,0.242,67948,242,0,-13,2003,-396,-0.00634765625,0.97802734375,-0.193359375,-4,0,10,-0.244140625,0.0,0.6103515625,2658,-4239,-5834,18046,593,4955,99.129638671875,3.2574462890625,27.2186279296875,349,3.49,0
105,25437,0.243,67949,243,1,37,1991,-442,0.01806640625,0.97216796875,-0.2158203125,13,-6,-4,0.79345703125,-0.3662109375,-0.244140625,3531,-4669,-2080,18551,-174,2768,101.9036865234375,-0.955810546875,15.205078125,357,3.57,0
106,25438,0.244,67950,244,2,59,1906,734,0.02880859375,0.9306640625,0.3583984375,-7,11,10,-0.42724609375,0.67138671875,0.6103515625,-2313,-1939,3800,12669,-279,-27299,69.5928955078125,-1.5325927734375,-149.9578857421875,356,3.56,0
107,25439,0.249,67955,249,0,-13,2007,-396,-0.00634765625,0.97998046875,-0.193359375,1,-8,4,0.06103515625,-0.48828125,0.244140625,2645,-4260,-5850,18047,590,4956,99.1351318359375,3.240966796875,27.22412109375,349,3.49,0
108,25440,0.25,67956,250,1,38,2002,-441,0.0185546875,0.9775390625,-0.21533203125,13,-5,-6,0.79345703125,-0.30517578125,-0.3662109375,3516,-4668,-2120,18552,-174,2768,101.9091796875,-0.955810546875,15.205078125,357,3.57,0
109,25441,0.251,67957,251,2,56,1907,736,0.02734375,0.93115234375,0.359375,-6,10,11,-0.3662109375,0.6103515625,0.67138671875,-2302,-1968,3799,12669,-279,-27299,69.5928955078125,-1.5325927734375,-149.9578857421875,356,3.56,0
110,25442,0.256,67962,256,0,-15,2009,-393,-0.00732421875,0.98095703125,-0.19189453125,-4,-11,5,-0.244140625,-0.67138671875,0.30517578125,2651,-4244,-5869,18047,590,4953,99.1351318359375,3.240966796875,27.2076416015625,349,3.49,0
111,25443,0.257,67963,257,1,38,2005,-434,0.0185546875,0.97900390625,-0.2119140625,6,0,-4,0.3662109375,0.0,-0.244140625,3522,-4675,-2109,18552,-174,2768,101.9091796875,-0.955810546875,15.205078125,357,3.57,0
112,25444,0.258,67964,258,2,53,1907,739,0.02587890625,0.93115234375,0.36083984375,-1,4,13,-0.06103515625,0.244140625,0.79345703125,-2269,-1971,3831,12669,-279,-27299,69.5928955078125,-1.5325927734375,-149.9578857421875,356,3.56,0
113,25445,0.263,67969,263,0,-15,2009,-393,-0.00732421875,0.98095703125,-0.19189453125,-4,-11,5,-0.244140625,-0.67138671875,0.30517578125,2651,-4244,-5869,18047,590,4953,99.1351318359375,3.240966796875,27.2076416015625,349,3.49,0
114,25446,0.264,67970,264,1,39,2003,-428,0.01904296875,0.97802734375,-0.208984375,4,3,-3,0.244140625,0.18310546875,-0.18310546875,3525,-4666,-2165,18552,-174,2768,101.9091796875,-0.955810546875,15.205078125,357,3.57,0
115,25447,0.265,67971,265,2,53,1909,740,0.02587890625,0.93212890625,0.361328125,1,1,14,0.06103515625,0.06103515625,0.8544921875,-2256,-1979,3842,12668,-279,-27299,69.58740234375,-1.5325927734375,-149.9578857421875,356,3.56,0
116,25448,0.27,67976,270,0,-21,2017,-385,-0.01025390625,0.98486328125,-0.18798828125,-2,-4,6,-0.1220703125,-0.244140625,0.3662109375,2660,-4230,-5778,18048,587,4954,99.140625,3.2244873046875,27.213134765625,349,3.49,0
117,25449,0.271,67977,271,1,33,1994,-426,0.01611328125,0.9736328125,-0.2080078125,-2,13,-1,-0.1220703125,0.79345703125,-0.06103515625,3514,-4661,-2159,18552,-174,2768,101.9091796875,-0.955810546875,15.205078125,357,3.57,0
118,25450,0.272,67978,272,2,53,1910,740,0.02587890625,0.9326171875,0.361328125,1,1,15,0.06103515625,0.06103515625,0.91552734375,-2260,-1963,3840,12668,-279,-27299,69.58740234375,-1.5325927734375,-149.9578857421875,356,3.56,0
119,25451,0.28,67986,280,0,-18,2016,-384,-0.0087890625,0.984375,-0.1875,-4,-2,5,-0.244140625,-0.1220703125,0.30517578125,2658,-4220,-5801,18048,587,4951,99.140625,3.2244873046875,27.1966552734375,349,3.49,0
120,25452,0.28,67986,280,1,32,1989,-427,0.015625,0.97119140625,-0.20849609375,-1,13,-2,-0.06103515625,0.79345703125,-0.1220703125,3535,-4665,-2181,18552,-174,2768,101.9091796875,-0.955810546875,15.205078125,358,3.58,0
121,25453,0.28,67986,280,2,55,1910,740,0.02685546875,0.9326171875,0.361328125,-2,6,14,-0.1220703125,0.3662109375,0.8544921875,-2262,-1970,3886,12668,-279,-27301,69.58740234375,-1.5325927734375,-149.9688720703125,356,3.56,0
122,25454,0.284,67990,284,0,-20,2011,-385,-0.009765625,0.98193359375,-0.18798828125,-9,-4,0,-0.54931640625,-0.244140625,0.0,2683,-4221,-5769,18050,584,4952,99.151611328125,3.2080078125,27.2021484375,349,3.49,0
123,25455,0.285,67991,285,1,31,1991,-430,0.01513671875,0.97216796875,-0.2099609375,-5,12,-2,-0.30517578125,0.732421875,-0.1220703125,3531,-4662,-2148,18552,-174,2768,101.9091796875,-0.955810546875,15.205078125,358,3.58,0
124,25456,0.286,67992,286,2,56,1911,739,0.02734375,0.93310546875,0.36083984375,-2,7,13,-0.1220703125,0.42724609375,0.79345703125,-2276,-1975,3862,12666,-279,-27300,69.576416015625,-1.5325927734375,-149.96337890625,356,3.56,0
125,25457,0.291,67997,291,0,-24,2009,-386,-0.01171875,0.98095703125,-0.1884765625,-12,-7,0,-0.732421875,-0.42724609375,0.0,2689,-4224,-5777,18050,584,4952,99.151611328125,3.2080078125,27.2021484375,349,3.49,0
126,25458,0.292,67998,292,1,28,1991,-428,0.013671875,0.97216796875,-0.208984375,-7,1,-2,-0.42724609375,0.06103515625,-0.1220703125,3533,-4656,-2170,18552,-174,2769,101.9091796875,-0.955810546875,15.2105712890625,358,3.58,0
127,25459,0.293,67999,293,2,55,1912,739,0.02685546875,0.93359375,0.36083984375,-1,8,13,-0.06103515625,0.48828125,0.79345703125,-2267,-1952,3837,12666,-279,-27300,69.576416015625,-1.5325927734375,-149.96337890625,357,3.57,0
128,25460,0.305,68011,305,0,-25,2008,-386,-0.01220703125,0.98046875,-0.1884765625,-9,-9,2,-0.54931640625,-0.54931640625,0.1220703125,2677,-4223,-5791,18050,584,4949,99.151611328125,3.2080078125,27.1856689453125,349,3.49,0
129,25461,0.306,68012,306,1,32,1984,-429,0.015625,0.96875,-0.20947265625,4,-4,1,0.244140625,-0.244140625,0.06103515625,3529,-4657,-2126,18553,-174,2769,101.9146728515625,-0.955810546875,15.2105712890625,358,3.58,0
130,25462,0.307,68013,307,2,52,1914,739,0.025390625,0.9345703125,0.36083984375,0,8,13,0.0,0.48828125,0.79345703125,-2249,-1981,3906,12665,-279,-27302,69.5709228515625,-1.5325927734375,-149.974365234375,356,3.56,0
131,25463,0.312,68018,312,0,-24,2001,-378,-0.01171875,0.97705078125,-0.1845703125,-13,-23,-1,-0.79345703125,-1.40380859375,-0.06103515625,2672,-4215,-5834,18051,582,4950,99.1571044921875,3.197021484375,27.191162109375,349,3.49,0
132,25464,0.313,68019,313,1,33,1990,-430,0.01611328125,0.9716796875,-0.2099609375,7,-5,-1,0.42724609375,-0.30517578125,-0.06103515625,3544,-4662,-2109,18553,-174,2769,101.9146728515625,-0.955810546875,15.2105712890625,357,3.57,0
133,25465,0.314,68020,314,2,54,1916,739,0.0263671875,0.935546875,0.36083984375,2,5,13,0.1220703125,0.30517578125,0.79345703125,-2241,-2032,3877,12665,-279,-27303,69.5709228515625,-1.5325927734375,-149.9798583984375,356,3.56,0
134,25466,0.319,68025,319,0,-19,2000,-380,-0.00927734375,0.9765625,-0.185546875,-11,-23,-1,-0.67138671875,-1.40380859375,-0.06103515625,2648,-4190,-5825,18051,582,4947,99.1571044921875,3.197021484375,27.1746826171875,349,3.49,0
135,25467,0.32,68026,320,1,32,1997,-436,0.015625,0.97509765625,-0.212890625,10,-7,-2,0.6103515625,-0.42724609375,-0.1220703125,3536,-4663,-2123,18553,-174,2769,101.9146728515625,-0.955810546875,15.2105712890625,357,3.57,0
136,25468,0.321,68027,321,2,56,1915,739,0.02734375,0.93505859375,0.36083984375,3,6,12,0.18310546875,0.3662109375,0.732421875,-2261,-2024,3917,12665,-279,-27303,69.5709228515625,-1.5325927734375,-149.9798583984375,356,3.56,0
137,25469,0.326,68032,326,0,-15,1996,-382,-0.00732421875,0.974609375,-0.1865234375,-11,-20,1,-0.67138671875,-1.220703125,0.06103515625,2646,-4206,-5789,18052,579,4948,99.16259765625,3.1805419921875,27.18017578125,349,3.49,0
138,25470,0.327,68033,327,1,30,1996,-438,0.0146484375,0.974609375,-0.2138671875,7,-14,-4,0.42724609375,-0.8544921875,-0.244140625,3539,-4647,-2155,18553,-174,2769,101.9146728515625,-0.955810546875,15.2105712890625,357,3.57,0
139,25471,0.328,68034,328,2,57,1915,738,0.02783203125,0.93505859375,0.3603515625,2,6,11,0.1220703125,0.3662109375,0.67138671875,-2255,-2060,3940,12663,-279,-27303,69.5599365234375,-1.5325927734375,-149.9798583984375,356,3.56,0
140,25472,0.333,68039,333,0,-11,1998,-384,-0.00537109375,0.9755859375,-0.1875,-12,-19,-1,-0.732421875,-1.15966796875,-0.06103515625,2645,-4231,-5821,18052,579,4948,99.16259765625,3.1805419921875,27.18017578125,349,3.49,0
141,25473,0.334,68040,334,1,31,1995,-439,0.01513671875,0.97412109375,-0.21435546875,1,-11,-4,0.06103515625,-0.67138671875,-0.244140625,3527,-4647,-2182,18553,-174,2769,101.9146728515625,-0.955810546875,15.2105712890625,357,3.57,0
142,25474,0.335,68041,335,2,55,1914,738,0.02685546875,0.9345703125,0.3603515625,-2,9,11,-0.1220703125,0.54931640625,0.67138671875,-2279,-2040,3906,12663,-279,-27304,69.5599365234375,-1.5325927734375,-149.9853515625,356,3.56,0
143,25475,0.34,68046,340,0,-9,2003,-389,-0.00439453125,0.97802734375,-0.18994140625,-7,-11,0,-0.42724609375,-0.67138671875,0.0,2644,-4273,-5877,18052,579,4944,99.16259765625,3.1805419921875,27.158203125,349,3.49,0
144,25476,0.341,68047,341,1,35,1993,-436,0.01708984375,0.97314453125,-0.212890625,-1,-12,-5,-0.06103515625,-0.732421875,-0.30517578125,3538,-4661,-2187,18553,-174,2769,101.9146728515625,-0.955810546875,15.2105712890625,356,3.56,0
145,25477,0.342,68048,342,2,53,1913,738,0.02587890625,0.93408203125,0.3603515625,-4,10,12,-0.244140625,0.6103515625,0.732421875,-2269,-2010,3925,12663,-279,-27304,69.5599365234375,-1.5325927734375,-149.9853515625,356,3.56,0
146,25478,0.347,68053,347,0,-9,2003,-391,-0.00439453125,0.97802734375,-0.19091796875,-4,-6,1,-0.244140625,-0.3662109375,0.06103515625,2644,-4292,-5901,18053,576,4945,99.1680908203125,3.1640625,27.1636962890625,349,3.49,0
147,25479,0.348,68054,348,1,39,1991,-433,0.01904296875,0.97216796875,-0.21142578125,2,-8,-5,0.1220703125,-0.48828125,-0.30517578125,3558,-4674,-2170,18553,-174,2770,101.9146728515625,-0.955810546875,15.216064453125,356,3.56,0
148,25480,0.349,68055,349,2,49,1911,739,0.02392578125,0.93310546875,0.36083984375,-1,6,15,-0.06103515625,0.3662109375,0.91552734375,-2262,-2017,3878,12662,-279,-27304,69.554443359375,-1.5325927734375,-149.9853515625,356,3.56,0
149,25481,0.354,68060,354,0,-9,2003,-391,-0.00439453125,0.97802734375,-0.19091796875,-4,-6,1,-0.244140625,-0.3662109375,0.06103515625,2644,-4292,-5901,18053,576,4945,99.1680908203125,3.1640625,27.1636962890625,349,3.49,0
150,25482,0.355,68061,355,1,41,1991,-432,0.02001953125,0.97216796875,-0.2109375,-2,-4,-5,-0.1220703125,-0.244140625,-0.30517578125,3548,-4677,-2169,18553,-174,2770,101.9146728515625,-0.955810546875,15.216064453125,356,3.56,0
151,25483,0.356,68062,356,2,49,1910,739,0.02392578125,0.9326171875,0.36083984375,1,4,18,0.06103515625,0.244140625,1.0986328125,-2264,-2002,3858,12662,-279,-27305,69.554443359375,-1.5325927734375,-149.9908447265625,356,3.56,0
152,25484,0.363,68069,363,0,0,2002,-400,0.0,0.9775390625,-0.1953125,-5,-2,1,-0.30517578125,-0.1220703125,0.06103515625,2625,-4315,-5937,18053,576,4942,99.1680908203125,3.1640625,27.147216796875,349,3.49,0
153,25485,0.363,68069,363,1,41,1991,-428,0.02001953125,0.97216796875,-0.208984375,-1,-1,-7,-0.06103515625,-0.06103515625,-0.42724609375,3532,-4670,-2154,18553,-174,2770,101.9146728515625,-0.955810546875,15.216064453125,356,3.56,0
154,25486,0.363,68069,363,2,50,1910,739,0.0244140625,0.9326171875,0.36083984375,2,2,19,0.1220703125,0.1220703125,1.15966796875,-2252,-1984,3843,12662,-279,-27305,69.554443359375,-1.5325927734375,-149.9908447265625,356,3.56,0
155,25487,0.368,68074,368,0,4,2002,-399,0.001953125,0.9775390625,-0.19482421875,-4,-2,3,-0.244140625,-0.1220703125,0.18310546875,2640,-4293,-5914,18054,573,4943,99.173583984375,3.1475830078125,27.1527099609375,349,3.49,0
156,25488,0.369,68075,369,1,45,1990,-428,0.02197265625,0.9716796875,-0.208984375,-4,2,-8,-0.244140625,0.1220703125,-0.48828125,3542,-4668,-2149,18554,-174,2770,101.920166015625,-0.955810546875,15.216064453125,356,3.56,0
157,25489,0.37,68076,370,2,54,1910,737,0.0263671875,0.9326171875,0.35986328125,0,3,20,0.0,0.18310546875,1.220703125,-2232,-1951,3884,12661,-279,-27305,69.5489501953125,-1.5325927734375,-149.9908447265625,356,3.56,0
158,25490,0.375,68081,375,0,4,2006,-391,0.001953125,0.9794921875,-0.19091796875,-2,-5,2,-0.1220703125,-0.30517578125,0.1220703125,2637,-4299,-5859,18054,573,4940,99.173583984375,3.1475830078125,27.13623046875,349,3.49,0
159,25491,0.376,68082,376,1,47,1986,-431,0.02294921875,0.9697265625,-0.21044921875,1,9,-7,0.06103515625,0.54931640625,-0.42724609375,3533,-4665,-2162,18554,-174,2770,101.920166015625,-0.955810546875,15.216064453125,356,3.56,0
160,25492,0.377,68083,377,2,56,1910,736,0.02734375,0.9326171875,0.359375,-2,4,22,-0.1220703125,0.244140625,1.3427734375,-2199,-1916,3885,12661,-279,-27307,69.5489501953125,-1.5325927734375,-150.0018310546875,356,3.56,0
161,25493,0.382,68088,382,0,3,2007,-391,0.00146484375,0.97998046875,-0.19091796875,-2,-4,4,-0.1220703125,-0.244140625,0.244140625,2634,-4289,-5910,18054,573,4940,99.173583984375,3.1475830078125,27.13623046875,348,3.48,0
162,25494,0.383,68089,383,1,47,1988,-427,0.02294921875,0.970703125,-0.20849609375,5,11,-8,0.30517578125,0.67138671875,-0.48828125,3553,-4655,-2150,18554,-174,2770,101.920166015625,-0.955810546875,15.216064453125,356,3.56,0
163,25495,0.384,68090,384,2,61,1911,735,0.02978515625,0.93310546875,0.35888671875,-5,8,22,-0.30517578125,0.48828125,1.3427734375,-2227,-1896,3864,12659,-279,-27307,69.5379638671875,-1.5325927734375,-150.0018310546875,355,3.55,0
164,25496,0.389,68095,389,0,3,2007,-391,0.00146484375,0.97998046875,-0.19091796875,-2,-4,4,-0.1220703125,-0.244140625,0.244140625,2634,-4289,-5910,18054,573,4940,99.173583984375,3.1475830078125,27.13623046875,348,3.48,0
165,25497,0.39,68096,390,1,45,1993,-431,0.02197265625,0.97314453125,-0.21044921875,5,9,-7,0.30517578125,0.54931640625,-0.42724609375,3544,-4668,-2154,18554,-174,2770,101.920166015625,-0.955810546875,15.216064453125,356,3.56,0
166,25498,0.391,68097,391,2,63,1911,735,0.03076171875,0.93310546875,0.35888671875,-5,12,21,-0.30517578125,0.732421875,1.28173828125,-2254,-1878,3894,12659,-279,-27307,69.5379638671875,-1.5325927734375,-150.0018310546875,355,3.55,0
167,25499,0.396,68102,396,0,2,2017,-379,0.0009765625,0.98486328125,-0.18505859375,-5,-5,2,-0.30517578125,-0.30517578125,0.1220703125,2608,-4298,-5906,18055,570,4938,99.1790771484375,3.131103515625,27.125244140625,348,3.48,0
168,25500,0.397,68103,397,1,47,1989,-432,0.02294921875,0.97119140625,-0.2109375,7,11,-5,0.42724609375,0.67138671875,-0.30517578125,3577,-4649,-2145,18554,-174,2770,101.920166015625,-0.955810546875,15.216064453125,356,3.56,0
169,25501,0.398,68104,398,2,64,1912,735,0.03125,0.93359375,0.35888671875,-5,15,19,-0.30517578125,0.91552734375,1.15966796875,-2247,-1898,3908,12659,-279,-27308,69.5379638671875,-1.5325927734375,-150.00732421875,355,3.55,0
170,25502,0.403,68109,403,0,3,2014,-375,0.00146484375,0.9833984375,-0.18310546875,-7,-5,0,-0.42724609375,-0.30517578125,0.0,2616,-4295,-5895,18055,570,4938,99.1790771484375,3.131103515625,27.125244140625,348,3.48,0
171,25503,0.404,68110,404,1,47,1991,-431,0.02294921875,0.97216796875,-0.21044921875,10,11,-4,0.6103515625,0.67138671875,-0.244140625,3572,-4657,-2183,18554,-174,2770,101.920166015625,-0.955810546875,15.216064453125,356,3.56,0
172,25504,0.405,68111,405,2,65,1913,736,0.03173828125,0.93408203125,0.359375,-6,17,18,-0.3662109375,1.03759765625,1.0986328125,-2244,-1966,3903,12658,-279,-27308,69.532470703125,-1.5325927734375,-150.00732421875,356,3.56,0
173,25505,0.41,68116,410,0,7,2013,-372,0.00341796875,0.98291015625,-0.181640625,-7,1,1,-0.42724609375,0.06103515625,0.06103515625,2603,-4242,-5907,18057,566,4939,99.1900634765625,3.109130859375,27.1307373046875,348,3.48,0
174,25506,0.411,68117,411,1,47,1991,-425,0.02294921875,0.97216796875,-0.20751953125,6,16,-4,0.3662109375,0.9765625,-0.244140625,3535,-4672,-2172,18554,-174,2771,101.920166015625,-0.955810546875,15.2215576171875,356,3.56,0
175,25507,0.412,68118,412,2,65,1913,735,0.03173828125,0.93408203125,0.35888671875,-5,17,17,-0.30517578125,1.03759765625,1.03759765625,-2240,-1960,3922,12658,-279,-27308,69.532470703125,-1.5325927734375,-150.00732421875,356,3.56,0
176,25508,0.417,68123,417,0,7,2013,-370,0.00341796875,0.98291015625,-0.1806640625,-10,1,0,-0.6103515625,0.06103515625,0.0,2614,-4245,-5884,18057,566,4935,99.1900634765625,3.109130859375,27.1087646484375,348,3.48,0
177,25509,0.418,68124,418,1,45,1996,-425,0.02197265625,0.974609375,-0.20751953125,5,14,-6,0.30517578125,0.8544921875,-0.3662109375,3551,-4661,-2183,18554,-174,2771,101.920166015625,-0.955810546875,15.2215576171875,356,3.56,0
178,25510,0.419,68125,419,2,65,1914,735,0.03173828125,0.9345703125,0.35888671875,-5,17,17,-0.30517578125,1.03759765625,1.03759765625,-2229,-1963,3918,12658,-279,-27309,69.532470703125,-1.5325927734375,-150.0128173828125,356,3.56,0
179,25511,0.427,68133,427,0,5,2012,-378,0.00244140625,0.982421875,-0.1845703125,-11,3,2,-0.67138671875,0.18310546875,0.1220703125,2623,-4251,-5892,18057,566,4935,99.1900634765625,3.109130859375,27.1087646484375,348,3.48,0
180,25512,0.428,68134,428,1,39,1990,-428,0.01904296875,0.9716796875,-0.208984375,6,11,-4,0.3662109375,0.67138671875,-0.244140625,3556,-4658,-2196,18554,-174,2771,101.920166015625,-0.955810546875,15.2215576171875,356,3.56,0
181,25513,0.428,68134,428,2,66,1915,735,0.0322265625,0.93505859375,0.35888671875,-5,23,15,-0.30517578125,1.40380859375,0.91552734375,-2272,-1987,3847,12657,-279,-27309,69.5269775390625,-1.5325927734375,-150.0128173828125,356,3.56,0
182,25514,0.431,68137,431,0,1,2011,-380,0.00048828125,0.98193359375,-0.185546875,-9,7,1,-0.54931640625,0.42724609375,0.06103515625,2601,-4260,-5856,18058,563,4936,99.195556640625,3.0926513671875,27.1142578125,348,3.48,0
183,25515,0.432,68138,432,1,37,1989,-424,0.01806640625,0.97119140625,-0.20703125,4,9,-6,0.244140625,0.54931640625,-0.3662109375,3548,-4659,-2200,18555,-174,2771,101.9256591796875,-0.955810546875,15.2215576171875,356,3.56,0
184,25516,0.433,68139,433,2,67,1915,735,0.03271484375,0.93505859375,0.35888671875,-5,27,13,-0.30517578125,1.64794921875,0.79345703125,-2306,-1972,3821,12657,-279,-27309,69.5269775390625,-1.5325927734375,-150.0128173828125,356,3.56,0
185,25517,0.438,68144,438,0,-1,2013,-383,-0.00048828125,0.98291015625,-0.18701171875,-11,13,2,-0.67138671875,0.79345703125,0.1220703125,2605,-4243,-5836,18058,563,4933,99.195556640625,3.0926513671875,27.0977783203125,348,3.48,0
186,25518,0.439,68145,439,1,35,1993,-426,0.01708984375,0.97314453125,-0.2080078125,2,7,-7,0.1220703125,0.42724609375,-0.42724609375,3535,-4664,-2222,18555,-174,2771,101.9256591796875,-0.955810546875,15.2215576171875,356,3.56,0
187,25519,0.44,68146,440,2,66,1918,736,0.0322265625,0.9365234375,0.359375,-9,30,13,-0.54931640625,1.8310546875,0.79345703125,-2308,-1943,3788,12657,-279,-27310,69.5269775390625,-1.5325927734375,-150.018310546875,356,3.56,0
188,25520,0.445,68151,445,0,3,2017,-387,0.00146484375,0.98486328125,-0.18896484375,-9,18,5,-0.54931640625,1.0986328125,0.30517578125,2608,-4250,-5787,18059,560,4934,99.2010498046875,3.076171875,27.103271484375,348,3.48,0
189,25521,0.446,68152,446,1,33,1992,-428,0.01611328125,0.97265625,-0.208984375,4,8,-7,0.244140625,0.48828125,-0.42724609375,3536,-4667,-2219,18555,-174,2771,101.9256591796875,-0.955810546875,15.2215576171875,356,3.56,0
190,25522,0.447,68153,447,2,66,1919,738,0.0322265625,0.93701171875,0.3603515625,-10,30,13,-0.6103515625,1.8310546875,0.79345703125,-2296,-1936,3786,12655,-279,-27310,69.5159912109375,-1.5325927734375,-150.018310546875,356,3.56,0
191,25523,0.452,68158,452,0,1,2019,-386,0.00048828125,0.98583984375,-0.1884765625,-12,24,5,-0.732421875,1.46484375,0.30517578125,2604,-4248,-5812,18059,560,4934,99.2010498046875,3.076171875,27.103271484375,348,3.48,0
192,25524,0.463,68169,463,1,34,1996,-425,0.0166015625,0.974609375,-0.20751953125,7,10,-8,0.42724609375,0.6103515625,-0.48828125,3509,-4688,-2158,18555,-174,2772,101.9256591796875,-0.955810546875,15.22705078125,356,3.56,0
193,25525,0.463,68169,463,2,70,1923,741,0.0341796875,0.93896484375,0.36181640625,-8,28,14,-0.48828125,1.708984375,0.8544921875,-2317,-1929,3775,12655,-279,-27311,69.5159912109375,-1.5325927734375,-150.0238037109375,356,3.56,0
194,25526,0.466,68172,466,0,3,2014,-395,0.00146484375,0.9833984375,-0.19287109375,-10,54,3,-0.6103515625,3.2958984375,0.18310546875,2644,-4232,-5801,18055,562,4934,99.1790771484375,3.087158203125,27.103271484375,348,3.48,0
195,25527,0.468,68174,468,2,72,1923,740,0.03515625,0.93896484375,0.361328125,-7,30,14,-0.42724609375,1.8310546875,0.8544921875,-2325,-1916,3813,12654,-279,-27311,69.510498046875,-1.5325927734375,-150.0238037109375,356,3.56,0
196,25528,0.473,68179,473,0,6,2012,-397,0.0029296875,0.982421875,-0.19384765625,-15,59,1,-0.91552734375,3.60107421875,0.06103515625,2654,-4235,-5764,18053,564,4937,99.1680908203125,3.09814453125,27.1197509765625,348,3.48,0
197,25529,0.475,68181,475,2,77,1923,738,0.03759765625,0.93896484375,0.3603515625,-10,37,13,-0.6103515625,2.25830078125,0.79345703125,-2351,-1941,3814,12654,-279,-27311,69.510498046875,-1.5325927734375,-150.0238037109375,356,3.56,0
198,25530,0.48,68186,480,0,6,2012,-397,0.0029296875,0.982421875,-0.19384765625,-15,59,1,-0.91552734375,3.60107421875,0.06103515625,2654,-4235,-5764,18053,564,4937,99.1680908203125,3.09814453125,27.1197509765625,348,3.48,0
199,25531,0.482,68188,482,2,78,1922,738,0.0380859375,0.9384765625,0.3603515625,-12,46,12,-0.732421875,2.8076171875,0.732421875,-2331,-1960,3839,12654,-279,-27309,69.510498046875,-1.5325927734375,-150.0128173828125,356,3.56,0
200,25532,0.487,68193,487,0,1,1998,-403,0.00048828125,0.9755859375,-0.19677734375,-12,66,3,-0.732421875,4.0283203125,0.18310546875,2648,-4211,-5746,18046,569,4945,99.129638671875,3.1256103515625,27.1636962890625,348,3.48,0
201,25533,0.489,68195,489,2,78,1921,738,0.0380859375,0.93798828125,0.3603515625,-16,54,12,-0.9765625,3.2958984375,0.732421875,-2345,-1976,3819,12653,-278,-27305,69.5050048828125,-1.527099609375,-149.9908447265625,356,3.56,0
202,25534,0.494,68200,494,0,0,1993,-402,0.0,0.97314453125,-0.1962890625,-10,66,8,-0.6103515625,4.0283203125,0.48828125,2667,-4204,-5697,18044,571,4947,99.11865234375,3.1365966796875,27.1746826171875,348,3.48,0
203,25535,0.496,68202,496,2,73,1917,740,0.03564453125,0.93603515625,0.361328125,-17,55,12,-1.03759765625,3.35693359375,0.732421875,-2336,-1963,3852,12652,-276,-27299,69.49951171875,-1.51611328125,-149.9578857421875,357,3.57,0
204,25536,0.501,68207,501,0,-11,1999,-396,-0.00537109375,0.97607421875,-0.193359375,-2,52,10,-0.1220703125,3.173828125,0.6103515625,2698,-4221,-5656,18041,574,4951,99.1021728515625,3.153076171875,27.1966552734375,348,3.48,0
205,25537,0.502,68208,502,1,27,1999,-420,0.01318359375,0.97607421875,-0.205078125,7,18,-7,0.42724609375,1.0986328125,-0.42724609375,3549,-4638,-2138,18555,-175,2772,101.9256591796875,-0.9613037109375,15.22705078125,357,3.57,0
206,25538,0.503,68209,503,2,70,1913,743,0.0341796875,0.93408203125,0.36279296875,-11,54,15,-0.67138671875,3.2958984375,0.91552734375,-2318,-1944,3873,12652,-275,-27296,69.49951171875,-1.5106201171875,-149.94140625,357,3.57,0
207,25539,0.508,68214,508,0,-17,2004,-395,-0.00830078125,0.978515625,-0.19287109375,-1,46,12,-0.06103515625,2.8076171875,0.732421875,2689,-4224,-5670,18039,575,4953,99.0911865234375,3.1585693359375,27.2076416015625,348,3.48,0
208,25540,0.509,68215,509,1,22,1996,-423,0.0107421875,0.974609375,-0.20654296875,8,16,-9,0.48828125,0.9765625,-0.54931640625,3554,-4644,-2125,18555,-174,2773,101.9256591796875,-0.955810546875,15.2325439453125,356,3.56,0
209,25541,0.51,68216,510,2,66,1907,744,0.0322265625,0.93115234375,0.36328125,1,46,18,0.06103515625,2.8076171875,1.0986328125,-2297,-1948,3858,12652,-274,-27290,69.49951171875,-1.505126953125,-149.908447265625,357,3.57,0
210,25542,0.515,68221,515,0,-17,2004,-395,-0.00830078125,0.978515625,-0.19287109375,-1,46,12,-0.06103515625,2.8076171875,0.732421875,2689,-4224,-5670,18039,575,4953,99.0911865234375,3.1585693359375,27.2076416015625,348,3.48,0
211,25543,0.523,68229,523,1,17,1998,-425,0.00830078125,0.9755859375,-0.20751953125,4,15,-10,0.244140625,0.91552734375,-0.6103515625,3565,-4648,-2087,18555,-174,2773,101.9256591796875,-0.955810546875,15.2325439453125,356,3.56,0
212,25544,0.523,68229,523,2,65,1904,744,0.03173828125,0.9296875,0.36328125,3,44,20,0.18310546875,2.685546875,1.220703125,-2276,-1929,3882,12653,-274,-27287,69.5050048828125,-1.505126953125,-149.8919677734375,357,3.57,0
213,25545,0.523,68229,523,0,-27,2011,-390,-0.01318359375,0.98193359375,-0.1904296875,2,18,2,0.1220703125,1.0986328125,0.1220703125,2675,-4219,-5697,18034,582,4954,99.063720703125,3.197021484375,27.213134765625,349,3.49,0
214,25546,0.523,68229,523,1,18,1990,-430,0.0087890625,0.9716796875,-0.2099609375,5,12,-10,0.30517578125,0.732421875,-0.6103515625,3556,-4667,-2123,18555,-174,2773,101.9256591796875,-0.955810546875,15.2325439453125,356,3.56,0
215,25547,0.524,68230,524,2,66,1902,743,0.0322265625,0.9287109375,0.36279296875,4,46,21,0.244140625,2.8076171875,1.28173828125,-2285,-1909,3841,12653,-273,-27284,69.5050048828125,-1.4996337890625,-149.87548828125,357,3.57,0
216,25548,0.529,68235,529,0,-31,2013,-387,-0.01513671875,0.98291015625,-0.18896484375,-7,14,-2,-0.42724609375,0.8544921875,-0.1220703125,2671,-4243,-5682,18032,584,4954,99.052734375,3.2080078125,27.213134765625,349,3.49,0
217,25549,0.531,68237,531,2,68,1900,740,0.033203125,0.927734375,0.361328125,0,52,21,0.0,3.173828125,1.28173828125,-2301,-1874,3771,12654,-272,-27277,69.510498046875,-1.494140625,-149.8370361328125,357,3.57,0
218,25550,0.536,68242,536,0,-29,2008,-377,-0.01416015625,0.98046875,-0.18408203125,-18,23,-7,-1.0986328125,1.40380859375,-0.42724609375,2665,-4225,-5728,18027,590,4955,99.0252685546875,3.240966796875,27.2186279296875,349,3.49,0
219,25551,0.537,68243,537,1,23,1985,-438,0.01123046875,0.96923828125,-0.2138671875,-2,9,-9,-0.1220703125,0.54931640625,-0.54931640625,3598,-4692,-2099,18555,-174,2773,101.9256591796875,-0.955810546875,15.2325439453125,356,3.56,0
220,25552,0.538,68244,538,2,68,1899,739,0.033203125,0.92724609375,0.36083984375,-4,51,21,-0.244140625,3.11279296875,1.28173828125,-2308,-1859,3740,12654,-272,-27274,69.510498046875,-1.494140625,-149.820556640625,357,3.57,0
221,25553,0.543,68249,543,0,-31,2009,-377,-0.01513671875,0.98095703125,-0.18408203125,-17,34,-6,-1.03759765625,2.0751953125,-0.3662109375,2660,-4247,-5737,18024,592,4956,99.0087890625,3.251953125,27.22412109375,349,3.49,0
222,25554,0.544,68250,544,1,25,1988,-438,0.01220703125,0.970703125,-0.2138671875,-3,6,-6,-0.18310546875,0.3662109375,-0.3662109375,3590,-4683,-2096,18555,-174,2773,101.9256591796875,-0.955810546875,15.2325439453125,356,3.56,0
223,25555,0.545,68251,545,2,67,1896,741,0.03271484375,0.92578125,0.36181640625,-2,51,20,-0.1220703125,3.11279296875,1.220703125,-2288,-1889,3796,12654,-271,-27267,69.510498046875,-1.4886474609375,-149.7821044921875,357,3.57,0
224,25556,0.55,68256,550,0,-31,2009,-377,-0.01513671875,0.98095703125,-0.18408203125,-17,34,-6,-1.03759765625,2.0751953125,-0.3662109375,2660,-4247,-5737,18024,592,4956,99.0087890625,3.251953125,27.22412109375,349,3.49,0
225,25557,0.551,68257,551,1,25,1985,-437,0.01220703125,0.96923828125,-0.21337890625,0,10,-3,0.0,0.6103515625,-0.18310546875,3575,-4682,-2111,18556,-174,2773,101.93115234375,-0.955810546875,15.2325439453125,356,3.56,0
226,25558,0.552,68258,552,2,66,1897,742,0.0322265625,0.92626953125,0.3623046875,0,47,19,0.0,2.86865234375,1.15966796875,-2293,-1906,3834,12654,-271,-27264,69.510498046875,-1.4886474609375,-149.765625,358,3.58,0
227,25559,0.557,68263,557,0,-31,1999,-377,-0.01513671875,0.97607421875,-0.18408203125,-24,59,-3,-1.46484375,3.60107421875,-0.18310546875,2651,-4259,-5705,18015,599,4963,98.9593505859375,3.2904052734375,27.2625732421875,349,3.49,0
228,25560,0.558,68264,558,1,21,1990,-435,0.01025390625,0.9716796875,-0.21240234375,5,10,-1,0.30517578125,0.6103515625,-0.06103515625,3608,-4690,-2108,18556,-174,2773,101.93115234375,-0.955810546875,15.2325439453125,356,3.56,0
229,25561,0.559,68265,559,2,64,1897,742,0.03125,0.92626953125,0.3623046875,-1,44,20,-0.06103515625,2.685546875,1.220703125,-2297,-1919,3821,12654,-270,-27261,69.510498046875,-1.483154296875,-149.7491455078125,358,3.58,0
230,25562,0.564,68270,564,0,-34,2001,-380,-0.0166015625,0.97705078125,-0.185546875,-26,62,-3,-1.5869140625,3.7841796875,-0.18310546875,2649,-4247,-5744,18013,601,4966,98.9483642578125,3.3013916015625,27.279052734375,349,3.49,0
231,25563,0.565,68271,565,1,22,1998,-438,0.0107421875,0.9755859375,-0.2138671875,3,9,2,0.18310546875,0.54931640625,0.1220703125,3630,-4680,-2129,18556,-174,2773,101.93115234375,-0.955810546875,15.2325439453125,356,3.56,0
232,25564,0.566,68272,566,2,62,1898,742,0.0302734375,0.9267578125,0.3623046875,1,42,18,0.06103515625,2.5634765625,1.0986328125,-2324,-1906,3864,12655,-270,-27256,69.5159912109375,-1.483154296875,-149.7216796875,358,3.58,0
233,25565,0.571,68277,571,0,-38,1993,-377,-0.0185546875,0.97314453125,-0.18408203125,-25,61,4,-1.52587890625,3.72314453125,0.244140625,2667,-4240,-5741,18007,604,4971,98.9154052734375,3.31787109375,27.3065185546875,349,3.49,0
234,25566,0.572,68278,572,1,20,2000,-436,0.009765625,0.9765625,-0.212890625,2,8,2,0.1220703125,0.48828125,0.1220703125,3645,-4659,-2115,18556,-174,2774,101.93115234375,-0.955810546875,15.238037109375,356,3.56,0
235,25567,0.573,68279,573,2,61,1899,741,0.02978515625,0.92724609375,0.36181640625,1,38,16,0.06103515625,2.3193359375,0.9765625,-2312,-1925,3877,12655,-269,-27254,69.5159912109375,-1.4776611328125,-149.710693359375,358,3.58,0
236,25568,0.578,68284,578,0,-45,1995,-381,-0.02197265625,0.97412109375,-0.18603515625,-21,59,5,-1.28173828125,3.60107421875,0.30517578125,2669,-4234,-5771,18004,606,4973,98.89892578125,3.328857421875,27.3175048828125,349,3.49,0
237,25569,0.579,68285,579,1,13,1996,-436,0.00634765625,0.974609375,-0.212890625,-3,14,3,-0.18310546875,0.8544921875,0.18310546875,3637,-4667,-2135,18556,-174,2774,101.93115234375,-0.955810546875,15.238037109375,356,3.56,0
238,25570,0.587,68293,587,2,60,1900,740,0.029296875,0.927734375,0.361328125,0,35,15,0.0,2.13623046875,0.91552734375,-2319,-1908,3846,12656,-269,-27251,69.521484375,-1.4776611328125,-149.6942138671875,358,3.58,0
239,25571,0.587,68293,587,0,-50,1996,-383,-0.0244140625,0.974609375,-0.18701171875,-19,55,8,-1.15966796875,3.35693359375,0.48828125,2657,-4246,-5770,18001,607,4975,98.8824462890625,3.3343505859375,27.3284912109375,349,3.49,0
240,25572,0.588,68294,588,1,9,1998,-442,0.00439453125,0.9755859375,-0.2158203125,-1,15,1,-0.06103515625,0.91552734375,0.06103515625,3635,-4637,-2122,18556,-174,2774,101.93115234375,-0.955810546875,15.238037109375,356,3.56,0
241,25573,0.588,68294,588,2,58,1903,740,0.0283203125,0.92919921875,0.361328125,-3,34,14,-0.18310546875,2.0751953125,0.8544921875,-2328,-1902,3894,12656,-268,-27247,69.521484375,-1.47216796875,-149.6722412109375,358,3.58,0
242,25574,0.592,68298,592,0,-63,1998,-388,-0.03076171875,0.9755859375,-0.189453125,-11,39,10,-0.67138671875,2.38037109375,0.6103515625,2681,-4263,-5762,17997,611,4978,98.8604736328125,3.3563232421875,27.344970703125,349,3.49,0
243,25575,0.593,68299,593,1,3,1997,-446,0.00146484375,0.97509765625,-0.2177734375,-3,12,3,-0.18310546875,0.732421875,0.18310546875,3637,-4665,-2089,18556,-173,2774,101.93115234375,-0.9503173828125,15.238037109375,355,3.55,0
244,25576,0.594,68300,594,2,57,1906,739,0.02783203125,0.9306640625,0.36083984375,-6,32,12,-0.3662109375,1.953125,0.732421875,-2329,-1932,3922,12656,-267,-27245,69.521484375,-1.4666748046875,-149.6612548828125,358,3.58,0
245,25577,0.599,68305,599,0,-64,1998,-388,-0.03125,0.9755859375,-0.189453125,-12,28,11,-0.732421875,1.708984375,0.67138671875,2688,-4254,-5804,17994,612,4978,98.843994140625,3.36181640625,27.344970703125,349,3.49,0
246,25578,0.6,68306,600,1,3,1995,-448,0.00146484375,0.97412109375,-0.21875,-4,11,3,-0.244140625,0.67138671875,0.18310546875,3649,-4663,-2076,18556,-173,2774,101.93115234375,-0.9503173828125,15.238037109375,355,3.55,0
247,25579,0.601,68307,601,2,54,1908,740,0.0263671875,0.931640625,0.361328125,-7,26,12,-0.42724609375,1.5869140625,0.732421875,-2324,-1923,3901,12656,-267,-27242,69.521484375,-1.4666748046875,-149.644775390625,358,3.58,0
248,25580,0.607,68313,607,1,3,1989,-445,0.00146484375,0.97119140625,-0.21728515625,-3,11,4,-0.18310546875,0.67138671875,0.244140625,3608,-4663,-2086,18556,-173,2774,101.93115234375,-0.9503173828125,15.238037109375,355,3.55,0
249,25581,0.608,68314,608,2,52,1909,740,0.025390625,0.93212890625,0.361328125,-4,20,12,-0.244140625,1.220703125,0.732421875,-2325,-1909,3906,12647,-269,-27242,69.4720458984375,-1.4776611328125,-149.644775390625,358,3.58,0
250,25582,0.613,68319,613,0,-63,2006,-390,-0.03076171875,0.9794921875,-0.1904296875,-6,3,12,-0.3662109375,0.18310546875,0.732421875,2647,-4221,-5771,17988,617,4977,98.81103515625,3.3892822265625,27.3394775390625,350,3.5,0
251,25583,0.614,68320,614,1,-2,1987,-452,-0.0009765625,0.97021484375,-0.220703125,0,9,4,0.0,0.54931640625,0.244140625,3538,-4664,-2104,18557,-173,2774,101.9366455078125,-0.9503173828125,15.238037109375,355,3.55,0
252,25584,0.615,68321,615,2,52,1910,740,0.025390625,0.9326171875,0.361328125,0,14,12,0.0,0.8544921875,0.732421875,-2318,-1931,3897,12647,-269,-27242,69.4720458984375,-1.4776611328125,-149.644775390625,357,3.57,0
253,25585,0.62,68326,620,0,-59,2007,-391,-0.02880859375,0.97998046875,-0.19091796875,-6,-5,9,-0.3662109375,-0.30517578125,0.54931640625,2669,-4223,-5749,17986,620,4976,98.800048828125,3.40576171875,27.333984375,350,3.5,0
254,25586,0.621,68327,621,1,-6,1986,-452,-0.0029296875,0.9697265625,-0.220703125,1,6,4,0.06103515625,0.3662109375,0.244140625,3508,-4664,-2111,18557,-173,2774,101.9366455078125,-0.9503173828125,15.238037109375,355,3.55,0
255,25587,0.622,68328,622,2,52,1912,738,0.025390625,0.93359375,0.3603515625,4,7,13,0.244140625,0.42724609375,0.79345703125,-2313,-1941,3897,12647,-268,-27243,69.4720458984375,-1.47216796875,-149.6502685546875,357,3.57,0
256,25588,0.633,68339,633,0,-58,2006,-386,-0.0283203125,0.9794921875,-0.1884765625,-10,-15,10,-0.6103515625,-0.91552734375,0.6103515625,2654,-4279,-5705,17981,624,4972,98.7725830078125,3.427734375,27.31201171875,350,3.5,0
257,25589,0.634,68340,634,1,-7,1977,-458,-0.00341796875,0.96533203125,-0.2236328125,0,-8,7,0.0,-0.48828125,0.42724609375,3504,-4682,-2150,18558,-172,2775,101.942138671875,-0.94482421875,15.2435302734375,355,3.55,0
258,25590,0.634,68340,634,2,53,1913,736,0.02587890625,0.93408203125,0.359375,5,3,14,0.30517578125,0.18310546875,0.8544921875,-2296,-1916,3896,12645,-269,-27243,69.4610595703125,-1.4776611328125,-149.6502685546875,357,3.57,0
259,25591,0.634,68340,634,0,-53,2006,-386,-0.02587890625,0.9794921875,-0.1884765625,-14,-19,6,-0.8544921875,-1.15966796875,0.3662109375,2654,-4277,-5699,17979,626,4971,98.7615966796875,3.438720703125,27.3065185546875,350,3.5,0
260,25592,0.635,68341,635,1,-5,1977,-451,-0.00244140625,0.96533203125,-0.22021484375,1,-10,7,0.06103515625,-0.6103515625,0.42724609375,3513,-4677,-2178,18558,-172,2775,101.942138671875,-0.94482421875,15.2435302734375,355,3.55,0
261,25593,0.636,68342,636,2,55,1916,731,0.02685546875,0.935546875,0.35693359375,3,3,12,0.18310546875,0.18310546875,0.732421875,-2319,-1908,3873,12645,-269,-27244,69.4610595703125,-1.4776611328125,-149.65576171875,357,3.57,0
262,25594,0.641,68347,641,0,-53,2006,-386,-0.02587890625,0.9794921875,-0.1884765625,-14,-19,6,-0.8544921875,-1.15966796875,0.3662109375,2654,-4277,-5699,17979,626,4971,98.7615966796875,3.438720703125,27.3065185546875,350,3.5,0
263,25595,0.642,68348,642,1,-5,1977,-447,-0.00244140625,0.96533203125,-0.21826171875,5,-11,8,0.30517578125,-0.67138671875,0.48828125,3511,-4671,-2173,18558,-172,2775,101.942138671875,-0.94482421875,15.2435302734375,355,3.55,0
264,25596,0.643,68349,643,2,55,1917,729,0.02685546875,0.93603515625,0.35595703125,0,4,11,0.0,0.244140625,0.67138671875,-2321,-1912,3859,12645,-269,-27244,69.4610595703125,-1.4776611328125,-149.65576171875,356,3.56,0
265,25597,0.648,68354,648,0,-46,2005,-378,-0.0224609375,0.97900390625,-0.1845703125,-19,-19,3,-1.15966796875,-1.15966796875,0.18310546875,2674,-4300,-5715,17970,634,4965,98.712158203125,3.482666015625,27.2735595703125,350,3.5,0
266,25598,0.649,68355,649,1,-3,1983,-444,-0.00146484375,0.96826171875,-0.216796875,7,-11,4,0.42724609375,-0.67138671875,0.244140625,3462,-4628,-2141,18558,-171,2775,101.942138671875,-0.9393310546875,15.2435302734375,355,3.55,0
267,25599,0.65,68356,650,2,55,1917,728,0.02685546875,0.93603515625,0.35546875,-4,5,9,-0.244140625,0.30517578125,0.54931640625,-2330,-1892,3895,12644,-269,-27244,69.45556640625,-1.4776611328125,-149.65576171875,356,3.56,0
268,25600,0.655,68361,655,0,-41,2006,-380,-0.02001953125,0.9794921875,-0.185546875,-19,-17,3,-1.15966796875,-1.03759765625,0.18310546875,2673,-4297,-5711,17967,636,4963,98.6956787109375,3.49365234375,27.2625732421875,351,3.51,0
269,25601,0.656,68362,656,1,-2,1986,-441,-0.0009765625,0.9697265625,-0.21533203125,5,-11,2,0.30517578125,-0.67138671875,0.1220703125,3457,-4638,-2143,18558,-171,2775,101.942138671875,-0.9393310546875,15.2435302734375,355,3.55,0
270,25602,0.657,68363,657,2,53,1915,728,0.02587890625,0.93505859375,0.35546875,-7,5,8,-0.42724609375,0.30517578125,0.48828125,-2317,-1912,3939,12644,-269,-27245,69.45556640625,-1.4776611328125,-149.6612548828125,356,3.56,0
271,25603,0.662,68368,662,0,-35,2007,-380,-0.01708984375,0.97998046875,-0.185546875,-17,-10,3,-1.03759765625,-0.6103515625,0.18310546875,2678,-4291,-5776,17962,641,4960,98.668212890625,3.5211181640625,27.24609375,351,3.51,0
272,25604,0.663,68369,663,1,7,1989,-440,0.00341796875,0.97119140625,-0.21484375,12,-14,2,0.732421875,-0.8544921875,0.1220703125,3486,-4661,-2174,18558,-171,2775,101.942138671875,-0.9393310546875,15.2435302734375,355,3.55,0
273,25605,0.664,68370,664,2,51,1914,728,0.02490234375,0.9345703125,0.35546875,-8,3,8,-0.48828125,0.18310546875,0.48828125,-2304,-1925,3948,12644,-269,-27245,69.45556640625,-1.4776611328125,-149.6612548828125,356,3.56,0
274,25606,0.669,68375,669,0,-31,2010,-378,-0.01513671875,0.9814453125,-0.1845703125,-17,-17,-1,-1.03759765625,-1.03759765625,-0.06103515625,2692,-4282,-5793,17959,644,4958,98.6517333984375,3.53759765625,27.235107421875,351,3.51,0
275,25607,0.67,68376,670,1,9,1993,-437,0.00439453125,0.97314453125,-0.21337890625,14,-13,1,0.8544921875,-0.79345703125,0.06103515625,3499,-4669,-2200,18559,-170,2775,101.9476318359375,-0.933837890625,15.2435302734375,355,3.55,0
276,25608,0.671,68377,671,2,49,1916,731,0.02392578125,0.935546875,0.35693359375,-12,-3,9,-0.732421875,-0.18310546875,0.54931640625,-2332,-1958,3907,12642,-269,-27245,69.444580078125,-1.4776611328125,-149.6612548828125,356,3.56,0
277,25609,0.676,68382,676,0,-31,2010,-378,-0.01513671875,0.9814453125,-0.1845703125,-17,-17,-1,-1.03759765625,-1.03759765625,-0.06103515625,2692,-4282,-5793,17959,644,4958,98.6517333984375,3.53759765625,27.235107421875,351,3.51,0
278,25610,0.677,68383,677,1,16,2002,-437,0.0078125,0.9775390625,-0.21337890625,13,-17,3,0.79345703125,-1.03759765625,0.18310546875,3508,-4667,-2226,18559,-170,2775,101.9476318359375,-0.933837890625,15.2435302734375,355,3.55,0
279,25611,0.678,68384,678,2,50,1917,732,0.0244140625,0.93603515625,0.357421875,-14,-4,9,-0.8544921875,-0.244140625,0.54931640625,-2324,-1922,3855,12642,-269,-27246,69.444580078125,-1.4776611328125,-149.666748046875,356,3.56,0
280,25612,0.683,68389,683,0,-17,2013,-378,-0.00830078125,0.98291015625,-0.1845703125,-17,-4,1,-1.03759765625,-0.244140625,0.06103515625,2680,-4273,-5761,17950,651,4955,98.602294921875,3.5760498046875,27.2186279296875,351,3.51,0
281,25613,0.684,68390,684,1,31,2006,-431,0.01513671875,0.9794921875,-0.21044921875,5,-16,-4,0.30517578125,-0.9765625,-0.244140625,3534,-4655,-2175,18559,-170,2775,101.9476318359375,-0.933837890625,15.2435302734375,355,3.55,0
282,25614,0.685,68391,685,2,50,1918,735,0.0244140625,0.9365234375,0.35888671875,-17,-3,10,-1.03759765625,-0.18310546875,0.6103515625,-2331,-1922,3855,12642,-269,-27246,69.444580078125,-1.4776611328125,-149.666748046875,356,3.56,0
283,25615,0.692,68398,692,0,-10,2009,-377,-0.0048828125,0.98095703125,-0.18408203125,-17,-5,3,-1.03759765625,-0.30517578125,0.18310546875,2680,-4245,-5760,17948,654,4954,98.59130859375,3.592529296875,27.213134765625,351,3.51,0
284,25616,0.692,68398,692,1,36,2004,-430,0.017578125,0.978515625,-0.2099609375,1,-13,-2,0.06103515625,-0.79345703125,-0.1220703125,3539,-4648,-2167,18559,-169,2776,101.9476318359375,-0.9283447265625,15.2490234375,355,3.55,0
285,25617,0.692,68398,692,2,51,1916,741,0.02490234375,0.935546875,0.36181640625,-15,0,8,-0.91552734375,0.0,0.48828125,-2331,-1926,3806,12641,-269,-27246,69.4390869140625,-1.4776611328125,-149.666748046875,356,3.56,0
286,25618,0.697,68403,697,0,-4,2008,-380,-0.001953125,0.98046875,-0.185546875,-17,-10,3,-1.03759765625,-0.6103515625,0.18310546875,2693,-4223,-5793,17942,659,4951,98.558349609375,3.6199951171875,27.1966552734375,351,3.51,0
287,25619,0.698,68404,698,1,53,2000,-426,0.02587890625,0.9765625,-0.2080078125,2,-11,1,0.1220703125,-0.67138671875,0.06103515625,3517,-4637,-2176,18559,-169,2776,101.9476318359375,-0.9283447265625,15.2490234375,355,3.55,0
288,25620,0.699,68405,699,2,50,1915,743,0.0244140625,0.93505859375,0.36279296875,-12,-3,7,-0.732421875,-0.18310546875,0.42724609375,-2335,-1952,3813,12641,-269,-27247,69.4390869140625,-1.4776611328125,-149.6722412109375,356,3.56,0
289,25621,0.704,68410,704,0,-6,2009,-378,-0.0029296875,0.98095703125,-0.1845703125,-16,-19,6,-0.9765625,-1.15966796875,0.3662109375,2671,-4223,-5755,17939,661,4949,98.5418701171875,3.6309814453125,27.1856689453125,351,3.51,0
290,25622,0.705,68411,705,1,57,1998,-429,0.02783203125,0.9755859375,-0.20947265625,-1,-8,2,-0.06103515625,-0.48828125,0.1220703125,3520,-4637,-2166,18559,-169,2776,101.9476318359375,-0.9283447265625,15.2490234375,355,3.55,0
291,25623,0.706,68412,706,2,48,1914,745,0.0234375,0.9345703125,0.36376953125,-8,-9,9,-0.48828125,-0.54931640625,0.54931640625,-2328,-1967,3775,12641,-269,-27247,69.4390869140625,-1.4776611328125,-149.6722412109375,356,3.56,0
292,25624,0.711,68417,711,0,-4,2006,-380,-0.001953125,0.9794921875,-0.185546875,-17,-26,7,-1.03759765625,-1.5869140625,0.42724609375,2680,-4241,-5764,17937,663,4946,98.5308837890625,3.6419677734375,27.169189453125,351,3.51,0
293,25625,0.712,68418,712,1,64,1992,-427,0.03125,0.97265625,-0.20849609375,-5,-7,4,-0.30517578125,-0.42724609375,0.244140625,3529,-4664,-2169,18560,-169,2776,101.953125,-0.9283447265625,15.2490234375,355,3.55,0
294,25626,0.713,68419,713,2,47,1911,747,0.02294921875,0.93310546875,0.36474609375,2,-16,11,0.1220703125,-0.9765625,0.67138671875,-2276,-1981,3808,12640,-269,-27247,69.43359375,-1.4776611328125,-149.6722412109375,356,3.56,0
295,25627,0.718,68424,718,0,2,2003,-374,0.0009765625,0.97802734375,-0.1826171875,-16,-42,7,-0.9765625,-2.5634765625,0.42724609375,2653,-4242,-5814,17931,668,4940,98.4979248046875,3.66943359375,27.13623046875,351,3.51,0
296,25628,0.719,68425,719,1,62,1992,-432,0.0302734375,0.97265625,-0.2109375,-4,-7,6,-0.244140625,-0.42724609375,0.3662109375,3527,-4655,-2175,18560,-169,2776,101.953125,-0.9283447265625,15.2490234375,355,3.55,0
297,25629,0.72,68426,720,2,47,1910,747,0.02294921875,0.9326171875,0.36474609375,7,-20,9,0.42724609375,-1.220703125,0.54931640625,-2274,-1990,3827,12640,-269,-27248,69.43359375,-1.4776611328125,-149.677734375,356,3.56,0
298,25630,0.725,68431,725,0,0,2006,-372,0.0,0.9794921875,-0.181640625,-16,-49,11,-0.9765625,-2.99072265625,0.67138671875,2667,-4247,-5791,17928,670,4937,98.4814453125,3.680419921875,27.1197509765625,350,3.5,0
299,25631,0.726,68432,726,1,58,1986,-436,0.0283203125,0.9697265625,-0.212890625,-1,-7,8,-0.06103515625,-0.42724609375,0.48828125,3539,-4647,-2177,18560,-169,2776,101.953125,-0.9283447265625,15.2490234375,355,3.55,0
300,25632,0.727,68433,727,2,46,1908,746,0.0224609375,0.931640625,0.3642578125,10,-20,6,0.6103515625,-1.220703125,0.3662109375,-2296,-1967,3865,12639,-269,-27248,69.4281005859375,-1.4776611328125,-149.677734375,357,3.57,0
301,25633,0.732,68438,732,0,-3,2002,-371,-0.00146484375,0.9775390625,-0.18115234375,-16,-51,11,-0.9765625,-3.11279296875,0.67138671875,2669,-4249,-5740,17922,675,4929,98.448486328125,3.7078857421875,27.0758056640625,350,3.5,0
302,25634,0.733,68439,733,1,54,1987,-442,0.0263671875,0.97021484375,-0.2158203125,-2,-14,12,-0.1220703125,-0.8544921875,0.732421875,3538,-4646,-2139,18560,-170,2776,101.953125,-0.933837890625,15.2490234375,355,3.55,0
303,25635,0.734,68440,734,2,46,1908,744,0.0224609375,0.931640625,0.36328125,7,-18,4,0.42724609375,-1.0986328125,0.244140625,-2294,-1972,3875,12639,-269,-27248,69.4281005859375,-1.4776611328125,-149.677734375,357,3.57,0
304,25636,0.739,68445,739,0,-1,2002,-374,-0.00048828125,0.9775390625,-0.1826171875,-12,-50,11,-0.732421875,-3.0517578125,0.67138671875,2670,-4248,-5740,17920,677,4926,98.4375,3.7188720703125,27.059326171875,350,3.5,0
305,25637,0.74,68446,740,1,51,1983,-445,0.02490234375,0.96826171875,-0.21728515625,1,-20,14,0.06103515625,-1.220703125,0.8544921875,3541,-4664,-2175,18560,-170,2776,101.953125,-0.933837890625,15.2490234375,355,3.55,0
306,25638,0.741,68447,741,2,45,1908,744,0.02197265625,0.931640625,0.36328125,5,-15,1,0.30517578125,-0.91552734375,0.06103515625,-2295,-1948,3853,12639,-269,-27249,69.4281005859375,-1.4776611328125,-149.6832275390625,357,3.57,0
307,25639,0.746,68452,746,0,0,2002,-372,0.0,0.9775390625,-0.181640625,-11,-51,11,-0.67138671875,-3.11279296875,0.67138671875,2661,-4257,-5778,17917,680,4922,98.4210205078125,3.7353515625,27.037353515625,350,3.5,0
308,25640,0.747,68453,747,1,45,1981,-443,0.02197265625,0.96728515625,-0.21630859375,3,-25,13,0.18310546875,-1.52587890625,0.79345703125,3519,-4649,-2211,18560,-170,2776,101.953125,-0.933837890625,15.2490234375,355,3.55,0
309,25641,0.748,68454,748,2,43,1908,741,0.02099609375,0.931640625,0.36181640625,5,-14,-1,0.30517578125,-0.8544921875,-0.06103515625,-2360,-1970,3892,12637,-269,-27249,69.4171142578125,-1.4776611328125,-149.6832275390625,357,3.57,0
310,25642,0.756,68462,756,0,1,2010,-371,0.00048828125,0.9814453125,-0.18115234375,-6,-45,10,-0.3662109375,-2.74658203125,0.6103515625,2654,-4266,-5743,17913,684,4915,98.3990478515625,3.75732421875,26.9989013671875,350,3.5,0
311,25643,0.756,68462,756,1,39,1984,-442,0.01904296875,0.96875,-0.2158203125,3,-27,12,0.18310546875,-1.64794921875,0.732421875,3547,-4652,-2194,18561,-170,2777,101.9586181640625,-0.933837890625,15.2545166015625,355,3.55,0
312,25644,0.757,68463,757,2,41,1908,739,0.02001953125,0.931640625,0.36083984375,7,-17,-2,0.42724609375,-1.03759765625,-0.1220703125,-2348,-2009,3878,12637,-269,-27249,69.4171142578125,-1.4776611328125,-149.6832275390625,357,3.57,0
313,25645,0.76,68466,760,0,5,2013,-374,0.00244140625,0.98291015625,-0.1826171875,-5,-37,9,-0.30517578125,-2.25830078125,0.54931640625,2658,-4249,-5749,17911,687,4913,98.3880615234375,3.7738037109375,26.9879150390625,350,3.5,0
314,25646,0.761,68467,761,1,36,1986,-448,0.017578125,0.9697265625,-0.21875,6,-29,14,0.3662109375,-1.77001953125,0.8544921875,3558,-4655,-2179,18561,-170,2777,101.9586181640625,-0.933837890625,15.2545166015625,355,3.55,0
315,25647,0.762,68468,762,2,42,1909,734,0.0205078125,0.93212890625,0.3583984375,4,-23,-1,0.244140625,-1.40380859375,-0.06103515625,-2331,-1995,3934,12637,-269,-27250,69.4171142578125,-1.4776611328125,-149.688720703125,357,3.57,0
316,25648,0.767,68473,767,0,5,2013,-374,0.00244140625,0.98291015625,-0.1826171875,-5,-37,9,-0.30517578125,-2.25830078125,0.54931640625,2658,-4249,-5749,17911,687,4913,98.3880615234375,3.7738037109375,26.9879150390625,350,3.5,0
317,25649,0.769,68475,769,2,46,1909,732,0.0224609375,0.93212890625,0.357421875,1,-17,-1,0.06103515625,-1.03759765625,-0.06103515625,-2321,-2016,3908,12636,-268,-27250,69.41162109375,-1.47216796875,-149.688720703125,357,3.57,0
318,25650,0.774,68480,774,0,7,2011,-379,0.00341796875,0.98193359375,-0.18505859375,-15,-12,5,-0.91552734375,-0.732421875,0.30517578125,2676,-4219,-5768,17903,694,4907,98.3441162109375,3.812255859375,26.9549560546875,350,3.5,0
319,25651,0.775,68481,775,1,30,1983,-439,0.0146484375,0.96826171875,-0.21435546875,9,-29,9,0.54931640625,-1.77001953125,0.54931640625,3537,-4651,-2129,18561,-170,2777,101.9586181640625,-0.933837890625,15.2545166015625,355,3.55,0
320,25652,0.786,68492,786,2,50,1908,732,0.0244140625,0.931640625,0.357421875,-3,-13,-3,-0.18310546875,-0.79345703125,-0.18310546875,-2307,-1984,3900,12636,-268,-27250,69.41162109375,-1.47216796875,-149.688720703125,358,3.58,0
321,25653,0.788,68494,788,0,11,2008,-383,0.00537109375,0.98046875,-0.18701171875,-19,-5,1,-1.15966796875,-0.30517578125,0.06103515625,2660,-4203,-5823,17894,701,4903,98.294677734375,3.8507080078125,26.9329833984375,350,3.5,0
322,25654,0.789,68495,789,1,38,1993,-423,0.0185546875,0.97314453125,-0.20654296875,3,-25,5,0.18310546875,-1.52587890625,0.30517578125,3566,-4671,-2134,18562,-170,2777,101.964111328125,-0.933837890625,15.2545166015625,355,3.55,0
323,25655,0.79,68496,790,2,53,1907,733,0.02587890625,0.93115234375,0.35791015625,-12,-7,-2,-0.732421875,-0.42724609375,-0.1220703125,-2363,-1961,3881,12635,-268,-27251,69.4061279296875,-1.47216796875,-149.6942138671875,358,3.58,0
324,25656,0.795,68501,795,0,13,2007,-378,0.00634765625,0.97998046875,-0.1845703125,-18,-8,5,-1.0986328125,-0.48828125,0.30517578125,2655,-4200,-5854,17892,703,4902,98.28369140625,3.8616943359375,26.927490234375,350,3.5,0
325,25657,0.796,68502,796,1,40,1992,-426,0.01953125,0.97265625,-0.2080078125,6,-19,4,0.3662109375,-1.15966796875,0.244140625,3565,-4676,-2146,18562,-170,2777,101.964111328125,-0.933837890625,15.2545166015625,355,3.55,0
326,25658,0.797,68503,797,2,53,1910,737,0.02587890625,0.9326171875,0.35986328125,-10,-7,0,-0.6103515625,-0.42724609375,0.0,-2354,-1954,3909,12635,-268,-27252,69.4061279296875,-1.47216796875,-149.69970703125,358,3.58,0
327,25659,0.802,68508,802,0,13,2007,-378,0.00634765625,0.97998046875,-0.1845703125,-18,-8,5,-1.0986328125,-0.48828125,0.30517578125,2655,-4200,-5854,17892,703,4902,98.28369140625,3.8616943359375,26.927490234375,350,3.5,0
328,25660,0.804,68510,804,2,53,1912,739,0.02587890625,0.93359375,0.36083984375,-9,-7,2,-0.54931640625,-0.42724609375,0.1220703125,-2354,-1943,3885,12635,-268,-27252,69.4061279296875,-1.47216796875,-149.69970703125,358,3.58,0
329,25661,0.809,68515,809,0,9,2015,-374,0.00439453125,0.98388671875,-0.1826171875,-12,-3,9,-0.732421875,-0.18310546875,0.54931640625,2652,-4185,-5820,17884,710,4899,98.23974609375,3.900146484375,26.9110107421875,350,3.5,0
330,25662,0.81,68516,810,1,52,2000,-420,0.025390625,0.9765625,-0.205078125,2,-10,-2,0.1220703125,-0.6103515625,-0.1220703125,3539,-4665,-2169,18562,-170,2778,101.964111328125,-0.933837890625,15.260009765625,355,3.55,0
331,25663,0.811,68517,811,2,53,1914,741,0.02587890625,0.9345703125,0.36181640625,-8,-5,3,-0.48828125,-0.30517578125,0.18310546875,-2343,-1918,3880,12634,-268,-27252,69.400634765625,-1.47216796875,-149.69970703125,357,3.57,0
332,25664,0.816,68522,816,0,5,2014,-372,0.00244140625,0.9833984375,-0.181640625,-14,-3,5,-0.8544921875,-0.18310546875,0.30517578125,2660,-4182,-5818,17881,712,4898,98.2232666015625,3.9111328125,26.905517578125,349,3.49,0
333,25665,0.817,68523,817,1,50,2002,-421,0.0244140625,0.9775390625,-0.20556640625,2,-8,0,0.1220703125,-0.48828125,0.0,3539,-4662,-2162,18562,-170,2778,101.964111328125,-0.933837890625,15.260009765625,355,3.55,0
334,25666,0.818,68524,818,2,55,1918,741,0.02685546875,0.9365234375,0.36181640625,-4,-3,3,-0.244140625,-0.18310546875,0.18310546875,-2335,-1904,3917,12634,-268,-27253,69.400634765625,-1.47216796875,-149.7052001953125,357,3.57,0
335,25667,0.823,68529,823,0,-2,2014,-377,-0.0009765625,0.9833984375,-0.18408203125,-20,-11,6,-1.220703125,-0.67138671875,0.3662109375,2670,-4168,-5792,17875,716,4895,98.1903076171875,3.93310546875,26.8890380859375,349,3.49,0
336,25668,0.824,68530,824,1,53,1991,-419,0.02587890625,0.97216796875,-0.20458984375,4,-3,-1,0.244140625,-0.18310546875,-0.06103515625,3538,-4660,-2177,18562,-170,2778,101.964111328125,-0.933837890625,15.260009765625,355,3.55,0
337,25669,0.825,68531,825,2,54,1919,740,0.0263671875,0.93701171875,0.361328125,-2,1,3,-0.1220703125,0.06103515625,0.18310546875,-2346,-1919,3928,12634,-268,-27253,69.400634765625,-1.47216796875,-149.7052001953125,357,3.57,0
338,25670,0.83,68536,830,0,-2,2011,-376,-0.0009765625,0.98193359375,-0.18359375,-21,-13,3,-1.28173828125,-0.79345703125,0.18310546875,2679,-4176,-5792,17872,719,4893,98.173828125,3.9495849609375,26.8780517578125,349,3.49,0
339,25671,0.831,68537,831,1,52,1991,-422,0.025390625,0.97216796875,-0.2060546875,2,2,0,0.1220703125,0.1220703125,0.0,3556,-4676,-2180,18562,-171,2778,101.964111328125,-0.9393310546875,15.260009765625,355,3.55,0
340,25672,0.832,68538,832,2,53,1920,738,0.02587890625,0.9375,0.3603515625,-1,2,3,-0.06103515625,0.1220703125,0.18310546875,-2355,-1925,3885,12632,-268,-27253,69.3896484375,-1.47216796875,-149.7052001953125,357,3.57,0
341,25673,0.837,68543,837,0,-2,2011,-376,-0.0009765625,0.98193359375,-0.18359375,-21,-13,3,-1.28173828125,-0.79345703125,0.18310546875,2679,-4176,-5792,17872,719,4893,98.173828125,3.9495849609375,26.8780517578125,349,3.49,0
342,25674,0.838,68544,838,1,54,1987,-423,0.0263671875,0.97021484375,-0.20654296875,-1,5,-1,-0.06103515625,0.30517578125,-0.06103515625,3538,-4676,-2177,18562,-171,2778,101.964111328125,-0.9393310546875,15.260009765625,355,3.55,0
343,25675,0.846,68552,846,2,49,1922,734,0.02392578125,0.9384765625,0.3583984375,-6,4,4,-0.3662109375,0.244140625,0.244140625,-2353,-1971,3895,12632,-268,-27254,69.3896484375,-1.47216796875,-149.710693359375,356,3.56,0
344,25676,0.846,68552,846,0,-4,1997,-380,-0.001953125,0.97509765625,-0.185546875,-12,-28,0,-0.732421875,-1.708984375,0.0,2681,-4200,-5771,17869,722,4888,98.1573486328125,3.966064453125,26.8505859375,348,3.48,0
345,25677,0.847,68553,847,1,52,1987,-424,0.025390625,0.97021484375,-0.20703125,2,3,-3,0.1220703125,0.18310546875,-0.18310546875,3537,-4676,-2196,18562,-171,2778,101.964111328125,-0.9393310546875,15.260009765625,355,3.55,0
346,25678,0.847,68553,847,2,49,1921,732,0.02392578125,0.93798828125,0.357421875,-4,12,5,-0.244140625,0.732421875,0.30517578125,-2339,-1999,3845,12632,-268,-27254,69.3896484375,-1.47216796875,-149.710693359375,356,3.56,0
347,25679,0.851,68557,851,0,0,1999,-379,0.0,0.97607421875,-0.18505859375,-10,-31,-1,-0.6103515625,-1.89208984375,-0.06103515625,2671,-4218,-5755,17896,667,4907,98.3056640625,3.6639404296875,26.9549560546875,348,3.48,0
348,25680,0.852,68558,852,1,54,1983,-425,0.0263671875,0.96826171875,-0.20751953125,7,3,-3,0.42724609375,0.18310546875,-0.18310546875,3533,-4686,-2181,18562,-171,2778,101.964111328125,-0.9393310546875,15.260009765625,355,3.55,0
349,25681,0.853,68559,853,2,48,1916,729,0.0234375,0.935546875,0.35595703125,1,18,5,0.06103515625,1.0986328125,0.30517578125,-2352,-1988,3823,12631,-268,-27254,69.3841552734375,-1.47216796875,-149.710693359375,356,3.56,0
350,25682,0.858,68564,858,0,1,2002,-378,0.00048828125,0.9775390625,-0.1845703125,-4,-17,1,-0.244140625,-1.03759765625,0.06103515625,2668,-4222,-5746,17896,667,4904,98.3056640625,3.6639404296875,26.9384765625,348,3.48,0
351,25683,0.86,68566,860,2,47,1915,729,0.02294921875,0.93505859375,0.35595703125,3,18,6,0.18310546875,1.0986328125,0.3662109375,-2353,-2004,3829,12631,-268,-27255,69.3841552734375,-1.47216796875,-149.7161865234375,356,3.56,0
352,25684,0.865,68571,865,0,3,2002,-380,0.00146484375,0.9775390625,-0.185546875,-3,-11,2,-0.18310546875,-0.67138671875,0.1220703125,2688,-4223,-5738,17896,667,4904,98.3056640625,3.6639404296875,26.9384765625,348,3.48,0
353,25685,0.866,68572,866,1,50,1990,-432,0.0244140625,0.9716796875,-0.2109375,17,-9,-2,1.03759765625,-0.54931640625,-0.1220703125,3539,-4653,-2091,18562,-171,2778,101.964111328125,-0.9393310546875,15.260009765625,355,3.55,0
354,25686,0.867,68573,867,2,48,1915,729,0.0234375,0.93505859375,0.35595703125,2,22,6,0.1220703125,1.3427734375,0.3662109375,-2371,-1994,3816,12631,-268,-27255,69.3841552734375,-1.47216796875,-149.7161865234375,356,3.56,0
355,25687,0.872,68578,872,0,6,2003,-380,0.0029296875,0.97802734375,-0.185546875,-1,-5,3,-0.06103515625,-0.30517578125,0.18310546875,2683,-4201,-5775,17900,661,4906,98.32763671875,3.6309814453125,26.949462890625,348,3.48,0
356,25688,0.873,68579,873,1,51,1994,-431,0.02490234375,0.9736328125,-0.21044921875,21,-8,-5,1.28173828125,-0.48828125,-0.30517578125,3539,-4647,-2106,18562,-172,2779,101.964111328125,-0.94482421875,15.2655029296875,355,3.55,0
357,25689,0.874,68580,874,2,49,1918,728,0.02392578125,0.9365234375,0.35546875,-9,25,5,-0.54931640625,1.52587890625,0.30517578125,-2385,-1951,3825,12630,-268,-27255,69.378662109375,-1.47216796875,-149.7161865234375,356,3.56,0
358,25690,0.879,68585,879,0,3,2014,-381,0.00146484375,0.9833984375,-0.18603515625,-4,5,6,-0.244140625,0.30517578125,0.3662109375,2667,-4217,-5792,17900,661,4903,98.32763671875,3.6309814453125,26.9329833984375,347,3.47,0
359,25691,0.88,68586,880,1,55,2013,-427,0.02685546875,0.98291015625,-0.20849609375,16,-8,-7,0.9765625,-0.48828125,-0.42724609375,3554,-4687,-2095,18562,-172,2779,101.964111328125,-0.94482421875,15.2655029296875,355,3.55,0
360,25692,0.881,68587,881,2,49,1919,728,0.02392578125,0.93701171875,0.35546875,-13,27,5,-0.79345703125,1.64794921875,0.30517578125,-2393,-1955,3819,12630,-268,-27255,69.378662109375,-1.47216796875,-149.7161865234375,356,3.56,0
361,25693,0.886,68592,886,0,2,2016,-384,0.0009765625,0.984375,-0.1875,-5,5,6,-0.30517578125,0.30517578125,0.3662109375,2661,-4207,-5763,17900,661,4903,98.32763671875,3.6309814453125,26.9329833984375,347,3.47,0
362,25694,0.887,68593,887,1,55,2012,-422,0.02685546875,0.982421875,-0.2060546875,13,-4,-9,0.79345703125,-0.244140625,-0.54931640625,3560,-4705,-2090,18562,-172,2779,101.964111328125,-0.94482421875,15.2655029296875,355,3.55,0
363,25695,0.888,68594,888,2,48,1920,729,0.0234375,0.9375,0.35595703125,-18,25,7,-1.0986328125,1.52587890625,0.42724609375,-2389,-1977,3802,12629,-268,-27255,69.3731689453125,-1.47216796875,-149.7161865234375,356,3.56,0
364,25696,0.893,68599,893,0,2,2016,-384,0.0009765625,0.984375,-0.1875,-5,5,6,-0.30517578125,0.30517578125,0.3662109375,2661,-4207,-5763,17900,661,4903,98.32763671875,3.6309814453125,26.9329833984375,347,3.47,0
365,25697,0.894,68600,894,1,56,2012,-422,0.02734375,0.982421875,-0.2060546875,6,3,-5,0.3662109375,0.18310546875,-0.30517578125,3565,-4720,-2085,18562,-172,2779,101.964111328125,-0.94482421875,15.2655029296875,355,3.55,0
366,25698,0.895,68601,895,2,48,1919,731,0.0234375,0.93701171875,0.35693359375,-17,28,9,-1.03759765625,1.708984375,0.54931640625,-2407,-1990,3801,12629,-268,-27255,69.3731689453125,-1.47216796875,-149.7161865234375,356,3.56,0
367,25699,0.9,68606,900,0,7,2008,-382,0.00341796875,0.98046875,-0.1865234375,-13,2,4,-0.79345703125,0.1220703125,0.244140625,2710,-4202,-5730,17902,656,4902,98.338623046875,3.603515625,26.927490234375,347,3.47,0
368,25700,0.901,68607,901,1,55,1995,-414,0.02685546875,0.97412109375,-0.2021484375,1,11,-6,0.06103515625,0.67138671875,-0.3662109375,3560,-4713,-2061,18562,-172,2779,101.964111328125,-0.94482421875,15.2655029296875,355,3.55,0
369,25701,0.902,68608,902,2,48,1918,733,0.0234375,0.9365234375,0.35791015625,-14,26,9,-0.8544921875,1.5869140625,0.54931640625,-2397,-1980,3800,12629,-268,-27256,69.3731689453125,-1.47216796875,-149.7216796875,356,3.56,0
370,25702,0.91,68616,910,0,11,2010,-381,0.00537109375,0.9814453125,-0.18603515625,-12,-1,4,-0.732421875,-0.06103515625,0.244140625,2700,-4228,-5733,17902,656,4902,98.338623046875,3.603515625,26.927490234375,347,3.47,0
371,25703,0.91,68616,910,1,57,1998,-419,0.02783203125,0.9755859375,-0.20458984375,3,17,-2,0.18310546875,1.03759765625,-0.1220703125,3561,-4732,-2051,18562,-172,2779,101.964111328125,-0.94482421875,15.2655029296875,355,3.55,0
372,25704,0.911,68617,911,2,45,1914,733,0.02197265625,0.9345703125,0.35791015625,-7,20,11,-0.42724609375,1.220703125,0.67138671875,-2406,-2019,3778,12628,-267,-27256,69.36767578125,-1.4666748046875,-149.7216796875,356,3.56,0
373,25705,0.914,68620,914,0,8,2010,-374,0.00390625,0.9814453125,-0.1826171875,-7,6,7,-0.42724609375,0.3662109375,0.42724609375,2688,-4203,-5711,17904,652,4903,98.349609375,3.58154296875,26.9329833984375,347,3.47,0
374,25706,0.916,68622,916,2,44,1912,733,0.021484375,0.93359375,0.35791015625,-7,17,13,-0.42724609375,1.03759765625,0.79345703125,-2399,-2020,3770,12628,-267,-27256,69.36767578125,-1.4666748046875,-149.7216796875,356,3.56,0
375,25707,0.921,68627,921,0,3,2012,-367,0.00146484375,0.982421875,-0.17919921875,-5,12,9,-0.30517578125,0.732421875,0.54931640625,2688,-4233,-5691,17904,652,4901,98.349609375,3.58154296875,26.9219970703125,347,3.47,0
376,25708,0.922,68628,922,1,48,2008,-422,0.0234375,0.98046875,-0.2060546875,3,12,-2,0.18310546875,0.732421875,-0.1220703125,3534,-4719,-2142,18562,-173,2779,101.964111328125,-0.9503173828125,15.2655029296875,355,3.55,0
377,25709,0.923,68629,923,2,44,1910,732,0.021484375,0.9326171875,0.357421875,-6,18,12,-0.3662109375,1.0986328125,0.732421875,-2391,-2005,3766,12628,-267,-27256,69.36767578125,-1.4666748046875,-149.7216796875,355,3.55,0
378,25710,0.928,68634,928,0,3,2012,-367,0.00146484375,0.982421875,-0.17919921875,-5,12,9,-0.30517578125,0.732421875,0.54931640625,2688,-4233,-5691,17904,652,4901,98.349609375,3.58154296875,26.9219970703125,347,3.47,0
379,25711,0.93,68636,930,2,42,1911,732,0.0205078125,0.93310546875,0.357421875,-9,22,12,-0.54931640625,1.3427734375,0.732421875,-2380,-2001,3799,12627,-267,-27256,69.3621826171875,-1.4666748046875,-149.7216796875,355,3.55,0
380,25712,0.935,68641,935,0,-9,2018,-364,-0.00439453125,0.9853515625,-0.177734375,-10,10,7,-0.6103515625,0.6103515625,0.42724609375,2675,-4223,-5708,17905,649,4902,98.3551025390625,3.5650634765625,26.927490234375,348,3.48,0
381,25713,0.936,68642,936,1,34,1996,-423,0.0166015625,0.974609375,-0.20654296875,-13,12,-5,-0.79345703125,0.732421875,-0.30517578125,3547,-4708,-2133,18562,-173,2780,101.964111328125,-0.9503173828125,15.27099609375,355,3.55,0
382,25714,0.937,68643,937,2,42,1911,732,0.0205078125,0.93310546875,0.357421875,-13,22,10,-0.79345703125,1.3427734375,0.6103515625,-2361,-1990,3777,12627,-267,-27256,69.3621826171875,-1.4666748046875,-149.7216796875,355,3.55,0
383,25715,0.942,68648,942,0,-17,2015,-364,-0.00830078125,0.98388671875,-0.177734375,-11,7,6,-0.67138671875,0.42724609375,0.3662109375,2643,-4242,-5705,17905,648,4899,98.3551025390625,3.5595703125,26.9110107421875,348,3.48,0
384,25716,0.953,68659,953,1,30,1987,-427,0.0146484375,0.97021484375,-0.20849609375,-14,8,-5,-0.8544921875,0.48828125,-0.30517578125,3573,-4693,-2152,18562,-173,2780,101.964111328125,-0.9503173828125,15.27099609375,354,3.54,0
385,25717,0.954,68660,954,2,43,1908,734,0.02099609375,0.931640625,0.3583984375,-11,20,8,-0.67138671875,1.220703125,0.48828125,-2326,-2008,3776,12626,-267,-27257,69.356689453125,-1.4666748046875,-149.7271728515625,355,3.55,0
386,25718,0.956,68662,956,0,-27,2011,-363,-0.01318359375,0.98193359375,-0.17724609375,-11,-6,2,-0.67138671875,-0.3662109375,0.1220703125,2645,-4259,-5747,17907,645,4900,98.3660888671875,3.5430908203125,26.91650390625,348,3.48,0
387,25719,0.957,68663,957,1,17,1978,-434,0.00830078125,0.9658203125,-0.2119140625,5,1,6,0.30517578125,0.06103515625,0.3662109375,3573,-4678,-2145,18562,-173,2780,101.964111328125,-0.9503173828125,15.27099609375,354,3.54,0
388,25720,0.958,68664,958,2,49,1901,737,0.02392578125,0.92822265625,0.35986328125,3,24,6,0.18310546875,1.46484375,0.3662109375,-2277,-1997,3779,12626,-267,-27257,69.356689453125,-1.4666748046875,-149.7271728515625,355,3.55,0
389,25721,0.963,68669,963,0,-27,2011,-363,-0.01318359375,0.98193359375,-0.17724609375,-11,-6,2,-0.67138671875,-0.3662109375,0.1220703125,2645,-4259,-5747,17907,645,4900,98.3660888671875,3.5430908203125,26.91650390625,348,3.48,0
390,25722,0.964,68670,964,1,19,1985,-426,0.00927734375,0.96923828125,-0.2080078125,5,-4,5,0.30517578125,-0.244140625,0.30517578125,3567,-4684,-2135,18562,-173,2780,101.964111328125,-0.9503173828125,15.27099609375,354,3.54,0
391,25723,0.965,68671,965,2,51,1899,737,0.02490234375,0.92724609375,0.35986328125,9,27,4,0.54931640625,1.64794921875,0.244140625,-2277,-1988,3784,12626,-267,-27257,69.356689453125,-1.4666748046875,-149.7271728515625,355,3.55,0
392,25724,0.97,68676,970,0,-34,2002,-358,-0.0166015625,0.9775390625,-0.1748046875,-11,-11,2,-0.67138671875,-0.67138671875,0.1220703125,2655,-4261,-5778,17908,642,4898,98.37158203125,3.526611328125,26.905517578125,348,3.48,0
393,25725,0.972,68678,972,2,51,1900,733,0.02490234375,0.927734375,0.35791015625,4,14,1,0.244140625,0.8544921875,0.06103515625,-2296,-1976,3839,12625,-267,-27257,69.3511962890625,-1.4666748046875,-149.7271728515625,355,3.55,0
394,25726,0.977,68683,977,0,-35,1995,-355,-0.01708984375,0.97412109375,-0.17333984375,-10,-11,1,-0.6103515625,-0.67138671875,0.06103515625,2664,-4256,-5768,17908,642,4898,98.37158203125,3.526611328125,26.905517578125,348,3.48,0
395,25727,0.978,68684,978,1,17,1989,-430,0.00830078125,0.97119140625,-0.2099609375,3,-27,6,0.18310546875,-1.64794921875,0.3662109375,3527,-4703,-2109,18563,-173,2779,101.9696044921875,-0.9503173828125,15.2655029296875,354,3.54,0
396,25728,0.979,68685,979,2,51,1900,732,0.02490234375,0.927734375,0.357421875,-7,12,1,-0.42724609375,0.732421875,0.06103515625,-2290,-1954,3761,12625,-266,-27256,69.3511962890625,-1.461181640625,-149.7216796875,355,3.55,0
397,25729,0.984,68690,984,0,-33,1996,-352,-0.01611328125,0.974609375,-0.171875,-7,-13,4,-0.42724609375,-0.79345703125,0.244140625,2700,-4245,-5759,17908,642,4895,98.37158203125,3.526611328125,26.8890380859375,348,3.48,0
398,25730,0.985,68691,985,1,19,1991,-431,0.00927734375,0.97216796875,-0.21044921875,7,-32,7,0.42724609375,-1.953125,0.42724609375,3540,-4704,-2099,18563,-173,2778,101.9696044921875,-0.9503173828125,15.260009765625,354,3.54,0
399,25731,0.986,68692,986,2,52,1899,733,0.025390625,0.92724609375,0.35791015625,-9,18,0,-0.54931640625,1.0986328125,0.0,-2275,-1978,3776,12625,-265,-27255,69.3511962890625,-1.4556884765625,-149.7161865234375,355,3.55,0
400,25732,0.991,68697,991,0,-32,1998,-352,-0.015625,0.9755859375,-0.171875,-8,-13,4,-0.48828125,-0.79345703125,0.244140625,2696,-4256,-5757,17909,639,4896,98.3770751953125,3.5101318359375,26.89453125,348,3.48,0
401,25733,0.992,68698,992,1,17,1997,-429,0.00830078125,0.97509765625,-0.20947265625,9,-30,3,0.54931640625,-1.8310546875,0.18310546875,3552,-4696,-2087,18564,-174,2776,101.97509765625,-0.955810546875,15.2490234375,354,3.54,0
402,25734,0.993,68699,993,2,50,1900,734,0.0244140625,0.927734375,0.3583984375,-9,17,-3,-0.54931640625,1.03759765625,-0.18310546875,-2292,-1973,3802,12625,-264,-27254,69.3511962890625,-1.4501953125,-149.710693359375,355,3.55,0
403,25735,0.998,68704,998,0,-29,1998,-351,-0.01416015625,0.9755859375,-0.17138671875,-7,-10,7,-0.42724609375,-0.6103515625,0.42724609375,2699,-4252,-5761,17909,639,4896,98.3770751953125,3.5101318359375,26.89453125,348,3.48,0
404,25736,1.013,68719,1013,1,14,2000,-429,0.0068359375,0.9765625,-0.20947265625,2,-31,1,0.1220703125,-1.89208984375,0.06103515625,3555,-4697,-2101,18564,-173,2775,101.97509765625,-0.9503173828125,15.2435302734375,354,3.54,0
405,25737,1.021,68727,1021,2,43,1898,736,0.02099609375,0.9267578125,0.359375,-5,11,0,-0.30517578125,0.67138671875,0.0,-2299,-1952,3772,12625,-262,-27252,69.3511962890625,-1.439208984375,-149.69970703125,355,3.55,0
406,25738,1.026,68732,1026,0,-30,2001,-381,-0.0146484375,0.97705078125,-0.18603515625,-15,9,8,-0.91552734375,0.54931640625,0.48828125,2724,-4240,-5766,17911,636,4892,98.3880615234375,3.49365234375,26.87255859375,348,3.48,0
407,25739,1.028,68734,1028,2,35,1908,730,0.01708984375,0.931640625,0.3564453125,-3,-8,6,-0.18310546875,-0.48828125,0.3662109375,-2329,-1957,3809,12626,-261,-27252,69.356689453125,-1.4337158203125,-149.69970703125,355,3.55,0
408,25740,1.033,68739,1033,0,-31,2004,-387,-0.01513671875,0.978515625,-0.18896484375,-9,5,11,-0.54931640625,0.30517578125,0.67138671875,2702,-4238,-5740,17912,633,4893,98.3935546875,3.4771728515625,26.8780517578125,348,3.48,0
409,25741,1.035,68741,1035,2,38,1913,728,0.0185546875,0.93408203125,0.35546875,-6,-2,7,-0.3662109375,-0.1220703125,0.42724609375,-2362,-1958,3778,12626,-261,-27252,69.356689453125,-1.4337158203125,-149.69970703125,355,3.55,0
410,25742,1.04,68746,1040,0,-33,2010,-394,-0.01611328125,0.9814453125,-0.1923828125,-7,-4,10,-0.42724609375,-0.244140625,0.6103515625,2724,-4232,-5691,17912,633,4890,98.3935546875,3.4771728515625,26.861572265625,347,3.47,0
411,25743,1.042,68748,1042,2,39,1915,729,0.01904296875,0.93505859375,0.35595703125,-2,4,8,-0.1220703125,0.244140625,0.48828125,-2347,-1954,3782,12627,-260,-27251,69.3621826171875,-1.42822265625,-149.6942138671875,355,3.55,0
412,25744,1.047,68753,1047,0,-32,2014,-393,-0.015625,0.9833984375,-0.19189453125,-4,-2,9,-0.244140625,-0.1220703125,0.54931640625,2719,-4228,-5713,17912,633,4890,98.3935546875,3.4771728515625,26.861572265625,347,3.47,0
413,25745,1.049,68755,1049,2,38,1918,727,0.0185546875,0.9365234375,0.35498046875,-7,-11,9,-0.42724609375,-0.67138671875,0.54931640625,-2336,-1951,3782,12627,-261,-27251,69.3621826171875,-1.4337158203125,-149.6942138671875,355,3.55,0
414,25746,1.054,68760,1054,0,-32,2014,-393,-0.015625,0.9833984375,-0.19189453125,-4,-2,9,-0.244140625,-0.1220703125,0.54931640625,2719,-4228,-5713,17912,633,4890,98.3935546875,3.4771728515625,26.861572265625,347,3.47,0
415,25747,1.056,68762,1056,2,40,1919,728,0.01953125,0.93701171875,0.35546875,-5,-9,10,-0.30517578125,-0.54931640625,0.6103515625,-2307,-1961,3798,12627,-261,-27251,69.3621826171875,-1.4337158203125,-149.6942138671875,355,3.55,0
416,25748,1.061,68767,1061,0,-39,2007,-394,-0.01904296875,0.97998046875,-0.1923828125,-5,-15,4,-0.30517578125,-0.91552734375,0.244140625,2755,-4255,-5693,17914,630,4888,98.404541015625,3.460693359375,26.8505859375,347,3.47,0
417,25749,1.063,68769,1063,2,41,1920,728,0.02001953125,0.9375,0.35546875,-7,-14,10,-0.42724609375,-0.8544921875,0.6103515625,-2290,-1948,3795,12627,-261,-27252,69.3621826171875,-1.4337158203125,-149.69970703125,355,3.55,0
418,25750,1.068,68774,1068,0,-36,2008,-391,-0.017578125,0.98046875,-0.19091796875,-1,-19,4,-0.06103515625,-1.15966796875,0.244140625,2744,-4257,-5718,17914,630,4888,98.404541015625,3.460693359375,26.8505859375,347,3.47,0
419,25751,1.076,68782,1076,2,46,1923,729,0.0224609375,0.93896484375,0.35595703125,-6,-12,10,-0.3662109375,-0.732421875,0.6103515625,-2293,-1947,3831,12627,-261,-27252,69.3621826171875,-1.4337158203125,-149.69970703125,355,3.55,0
420,25752,1.076,68782,1076,0,-29,2009,-389,-0.01416015625,0.98095703125,-0.18994140625,0,-30,2,0.0,-1.8310546875,0.1220703125,2731,-4239,-5714,17916,628,4889,98.41552734375,3.44970703125,26.8560791015625,347,3.47,0
421,25753,1.076,68782,1076,1,42,2001,-433,0.0205078125,0.97705078125,-0.21142578125,6,-15,2,0.3662109375,-0.91552734375,0.1220703125,3557,-4697,-2147,18564,-172,2768,101.97509765625,-0.94482421875,15.205078125,357,3.57,0
422,25754,1.077,68783,1077,2,48,1924,729,0.0234375,0.939453125,0.35595703125,-7,-13,8,-0.42724609375,-0.79345703125,0.48828125,-2328,-1936,3837,12627,-261,-27253,69.3621826171875,-1.4337158203125,-149.7052001953125,355,3.55,0
423,25755,1.082,68788,1082,0,-26,2007,-386,-0.0126953125,0.97998046875,-0.1884765625,4,-37,3,0.244140625,-2.25830078125,0.18310546875,2727,-4214,-5723,17914,629,4887,98.404541015625,3.4552001953125,26.8450927734375,347,3.47,0
424,25756,1.083,68789,1083,1,41,2001,-431,0.02001953125,0.97705078125,-0.21044921875,3,-14,-2,0.18310546875,-0.8544921875,-0.1220703125,3557,-4699,-2148,18564,-172,2767,101.97509765625,-0.94482421875,15.1995849609375,357,3.57,0
425,25757,1.084,68790,1084,2,51,1923,729,0.02490234375,0.93896484375,0.35595703125,-8,-7,6,-0.48828125,-0.42724609375,0.3662109375,-2333,-1969,3862,12626,-261,-27253,69.356689453125,-1.4337158203125,-149.7052001953125,355,3.55,0
426,25758,1.089,68795,1089,0,-26,2007,-386,-0.0126953125,0.97998046875,-0.1884765625,4,-37,3,0.244140625,-2.25830078125,0.18310546875,2727,-4214,-5723,17914,629,4887,98.404541015625,3.4552001953125,26.8450927734375,347,3.47,0
427,25759,1.091,68797,1091,2,52,1922,730,0.025390625,0.9384765625,0.3564453125,-8,-6,4,-0.48828125,-0.3662109375,0.244140625,-2310,-1980,3876,12626,-261,-27253,69.356689453125,-1.4337158203125,-149.7052001953125,355,3.55,0
428,25760,1.096,68802,1096,0,-18,2012,-378,-0.0087890625,0.982421875,-0.1845703125,-2,-54,5,-0.1220703125,-3.2958984375,0.30517578125,2711,-4250,-5749,17909,637,4877,98.3770751953125,3.4991455078125,26.7901611328125,347,3.47,0
429,25761,1.097,68803,1097,1,50,1998,-425,0.0244140625,0.9755859375,-0.20751953125,3,-5,1,0.18310546875,-0.30517578125,0.06103515625,3543,-4686,-2141,18564,-172,2768,101.97509765625,-0.94482421875,15.205078125,358,3.58,0
430,25762,1.098,68804,1098,2,52,1920,732,0.025390625,0.9375,0.357421875,-6,-8,3,-0.3662109375,-0.48828125,0.18310546875,-2308,-1970,3898,12626,-261,-27253,69.356689453125,-1.4337158203125,-149.7052001953125,355,3.55,0
431,25763,1.103,68809,1103,0,-19,2011,-382,-0.00927734375,0.98193359375,-0.1865234375,-5,-60,4,-0.30517578125,-3.662109375,0.244140625,2692,-4212,-5768,17906,640,4872,98.360595703125,3.515625,26.7626953125,347,3.47,0
432,25764,1.104,68810,1104,1,53,1994,-423,0.02587890625,0.9736328125,-0.20654296875,2,-2,0,0.1220703125,-0.1220703125,0.0,3535,-4695,-2148,18564,-172,2768,101.97509765625,-0.94482421875,15.205078125,358,3.58,0
433,25765,1.105,68811,1105,2,51,1917,736,0.02490234375,0.93603515625,0.359375,-3,-11,3,-0.18310546875,-0.67138671875,0.18310546875,-2316,-1949,3901,12626,-261,-27254,69.356689453125,-1.4337158203125,-149.710693359375,355,3.55,0
434,25766,1.11,68816,1110,0,-12,2008,-379,-0.005859375,0.98046875,-0.18505859375,-5,-70,4,-0.30517578125,-4.2724609375,0.244140625,2681,-4239,-5774,17902,646,4863,98.338623046875,3.548583984375,26.7132568359375,347,3.47,0
435,25767,1.111,68817,1111,1,53,1994,-422,0.02587890625,0.9736328125,-0.2060546875,2,-2,4,0.1220703125,-0.1220703125,0.244140625,3546,-4704,-2128,18565,-172,2769,101.9805908203125,-0.94482421875,15.2105712890625,357,3.57,0
436,25768,1.112,68818,1112,2,52,1915,736,0.025390625,0.93505859375,0.359375,-2,-13,3,-0.1220703125,-0.79345703125,0.18310546875,-2336,-1922,3888,12620,-260,-27254,69.32373046875,-1.42822265625,-149.710693359375,355,3.55,0
437,25769,1.117,68823,1117,0,-11,2010,-373,-0.00537109375,0.9814453125,-0.18212890625,-5,-70,6,-0.30517578125,-4.2724609375,0.3662109375,2689,-4229,-5792,17900,648,4858,98.32763671875,3.5595703125,26.685791015625,347,3.47,0
438,25770,1.119,68825,1119,2,52,1914,737,0.025390625,0.9345703125,0.35986328125,-3,-13,3,-0.18310546875,-0.79345703125,0.18310546875,-2308,-1910,3870,12620,-260,-27254,69.32373046875,-1.42822265625,-149.710693359375,355,3.55,0
439,25771,1.124,68830,1124,0,-5,2008,-368,-0.00244140625,0.98046875,-0.1796875,-6,-71,6,-0.3662109375,-4.33349609375,0.3662109375,2668,-4240,-5792,17897,651,4853,98.3111572265625,3.5760498046875,26.6583251953125,347,3.47,0
440,25772,1.126,68832,1126,2,52,1914,740,0.025390625,0.9345703125,0.361328125,-3,-10,3,-0.18310546875,-0.6103515625,0.18310546875,-2327,-1880,3860,12620,-260,-27255,69.32373046875,-1.42822265625,-149.7161865234375,355,3.55,0
441,25773,1.131,68837,1131,0,-5,2005,-364,-0.00244140625,0.97900390625,-0.177734375,-3,-63,6,-0.18310546875,-3.84521484375,0.3662109375,2649,-4261,-5786,17893,656,4845,98.2891845703125,3.603515625,26.6143798828125,347,3.47,0
442,25774,1.133,68839,1133,2,52,1913,740,0.025390625,0.93408203125,0.361328125,-3,-12,2,-0.18310546875,-0.732421875,0.1220703125,-2338,-1857,3884,12619,-259,-27255,69.3182373046875,-1.4227294921875,-149.7161865234375,355,3.55,0
443,25775,1.14,68846,1140,0,-2,2003,-358,-0.0009765625,0.97802734375,-0.1748046875,-3,-57,7,-0.18310546875,-3.47900390625,0.42724609375,2644,-4251,-5755,17891,659,4841,98.2781982421875,3.6199951171875,26.5924072265625,347,3.47,0
444,25776,1.14,68846,1140,1,41,1984,-422,0.02001953125,0.96875,-0.2060546875,1,-7,4,0.06103515625,-0.42724609375,0.244140625,3532,-4694,-2152,18566,-172,2770,101.986083984375,-0.94482421875,15.216064453125,356,3.56,0
445,25777,1.141,68847,1141,2,53,1909,738,0.02587890625,0.93212890625,0.3603515625,-2,-8,3,-0.1220703125,-0.48828125,0.18310546875,-2369,-1865,3857,12619,-259,-27256,69.3182373046875,-1.4227294921875,-149.7216796875,355,3.55,0
446,25778,1.145,68851,1145,0,2,2009,-359,0.0009765625,0.98095703125,-0.17529296875,-1,-42,8,-0.06103515625,-2.5634765625,0.48828125,2632,-4246,-5769,17886,664,4834,98.250732421875,3.6474609375,26.553955078125,347,3.47,0
447,25779,1.147,68853,1147,2,54,1907,737,0.0263671875,0.93115234375,0.35986328125,-4,-6,2,-0.244140625,-0.3662109375,0.1220703125,-2363,-1861,3881,12619,-259,-27256,69.3182373046875,-1.4227294921875,-149.7216796875,355,3.55,0
448,25780,1.156,68862,1156,0,3,2010,-368,0.00146484375,0.9814453125,-0.1796875,-5,-37,11,-0.30517578125,-2.25830078125,0.67138671875,2627,-4265,-5741,17884,666,4831,98.23974609375,3.658447265625,26.5374755859375,347,3.47,0
449,25781,1.156,68862,1156,1,31,1986,-421,0.01513671875,0.9697265625,-0.20556640625,8,-9,2,0.48828125,-0.54931640625,0.1220703125,3548,-4684,-2061,18566,-172,2770,101.986083984375,-0.94482421875,15.216064453125,356,3.56,0
450,25782,1.156,68862,1156,2,54,1905,736,0.0263671875,0.93017578125,0.359375,-5,-3,1,-0.30517578125,-0.18310546875,0.06103515625,-2362,-1859,3879,12617,-259,-27256,69.3072509765625,-1.4227294921875,-149.7216796875,355,3.55,0
451,25783,1.159,68865,1159,0,3,2011,-367,0.00146484375,0.98193359375,-0.17919921875,-6,-31,10,-0.3662109375,-1.89208984375,0.6103515625,2629,-4262,-5743,17882,668,4829,98.228759765625,3.66943359375,26.5264892578125,347,3.47,0
452,25784,1.16,68866,1160,1,33,1991,-420,0.01611328125,0.97216796875,-0.205078125,9,-11,4,0.54931640625,-0.67138671875,0.244140625,3567,-4672,-2087,18566,-172,2770,101.986083984375,-0.94482421875,15.216064453125,356,3.56,0
453,25785,1.161,68867,1161,2,54,1904,735,0.0263671875,0.9296875,0.35888671875,-5,-3,1,-0.30517578125,-0.18310546875,0.06103515625,-2353,-1899,3901,12617,-259,-27256,69.3072509765625,-1.4227294921875,-149.7216796875,355,3.55,0
454,25786,1.166,68872,1166,0,6,2008,-372,0.0029296875,0.98046875,-0.181640625,-4,-20,8,-0.244140625,-1.220703125,0.48828125,2670,-4257,-5805,17878,672,4825,98.206787109375,3.69140625,26.5045166015625,347,3.47,0
455,25787,1.168,68874,1168,2,53,1903,735,0.02587890625,0.92919921875,0.35888671875,-4,-1,1,-0.244140625,-0.06103515625,0.06103515625,-2346,-1910,3906,12617,-259,-27256,69.3072509765625,-1.4227294921875,-149.7216796875,355,3.55,0
456,25788,1.173,68879,1173,0,4,2009,-371,0.001953125,0.98095703125,-0.18115234375,-4,-17,7,-0.244140625,-1.03759765625,0.42724609375,2691,-4254,-5828,17876,675,4823,98.19580078125,3.7078857421875,26.4935302734375,347,3.47,0
457,25789,1.174,68880,1174,1,30,1997,-426,0.0146484375,0.97509765625,-0.2080078125,7,-10,0,0.42724609375,-0.6103515625,0.0,3607,-4671,-2083,18566,-172,2771,101.986083984375,-0.94482421875,15.2215576171875,356,3.56,0
458,25790,1.175,68881,1175,2,53,1903,736,0.02587890625,0.92919921875,0.359375,-4,2,2,-0.244140625,0.1220703125,0.1220703125,-2332,-1944,3863,12616,-259,-27256,69.3017578125,-1.4227294921875,-149.7216796875,355,3.55,0
459,25791,1.18,68886,1180,0,4,2009,-371,0.001953125,0.98095703125,-0.18115234375,-4,-17,7,-0.244140625,-1.03759765625,0.42724609375,2691,-4254,-5828,17876,675,4823,98.19580078125,3.7078857421875,26.4935302734375,347,3.47,0
460,25792,1.182,68888,1182,2,53,1903,736,0.02587890625,0.92919921875,0.359375,-4,4,3,-0.244140625,0.244140625,0.18310546875,-2323,-1942,3844,12616,-259,-27257,69.3017578125,-1.4227294921875,-149.7271728515625,355,3.55,0
461,25793,1.187,68893,1187,0,4,2012,-378,0.001953125,0.982421875,-0.1845703125,-1,-10,9,-0.06103515625,-0.6103515625,0.54931640625,2688,-4216,-5860,17870,682,4818,98.162841796875,3.746337890625,26.466064453125,347,3.47,0
462,25794,1.188,68894,1188,1,29,1991,-423,0.01416015625,0.97216796875,-0.20654296875,-3,-5,1,-0.18310546875,-0.30517578125,0.06103515625,3617,-4682,-2150,18566,-172,2771,101.986083984375,-0.94482421875,15.2215576171875,356,3.56,0
463,25795,1.189,68895,1189,2,52,1902,736,0.025390625,0.9287109375,0.359375,-3,4,2,-0.18310546875,0.244140625,0.1220703125,-2319,-1924,3843,12616,-259,-27257,69.3017578125,-1.4227294921875,-149.7271728515625,355,3.55,0
464,25796,1.194,68900,1194,0,3,2014,-383,0.00146484375,0.9833984375,-0.18701171875,2,-8,5,0.1220703125,-0.48828125,0.30517578125,2695,-4209,-5860,17868,684,4817,98.15185546875,3.75732421875,26.4605712890625,347,3.47,0
465,25797,1.196,68902,1196,2,52,1904,735,0.025390625,0.9296875,0.35888671875,0,5,3,0.0,0.30517578125,0.18310546875,-2306,-1908,3869,12615,-259,-27257,69.2962646484375,-1.4227294921875,-149.7271728515625,355,3.55,0
466,25798,1.201,68907,1201,0,-1,2010,-379,-0.00048828125,0.9814453125,-0.18505859375,0,-11,4,0.0,-0.67138671875,0.244140625,2688,-4212,-5898,17865,689,4814,98.1353759765625,3.7847900390625,26.444091796875,347,3.47,0
467,25799,1.203,68909,1203,2,52,1905,736,0.025390625,0.93017578125,0.359375,0,5,3,0.0,0.30517578125,0.18310546875,-2313,-1918,3879,12615,-259,-27258,69.2962646484375,-1.4227294921875,-149.732666015625,355,3.55,0
468,25800,1.208,68914,1208,0,-2,2011,-377,-0.0009765625,0.98193359375,-0.18408203125,-1,-11,2,-0.06103515625,-0.67138671875,0.1220703125,2689,-4209,-5822,17863,691,4813,98.1243896484375,3.7957763671875,26.4385986328125,347,3.47,0
469,25801,1.209,68915,1209,1,33,1996,-425,0.01611328125,0.974609375,-0.20751953125,5,-5,-1,0.30517578125,-0.30517578125,-0.06103515625,3602,-4674,-2157,18566,-172,2771,101.986083984375,-0.94482421875,15.2215576171875,356,3.56,0
470,25802,1.21,68916,1210,2,52,1908,738,0.025390625,0.931640625,0.3603515625,-1,9,6,-0.06103515625,0.54931640625,0.3662109375,-2322,-1938,3846,12614,-259,-27258,69.290771484375,-1.4227294921875,-149.732666015625,356,3.56,0
471,25803,1.217,68923,1217,0,-2,2011,-377,-0.0009765625,0.98193359375,-0.18408203125,-1,-11,2,-0.06103515625,-0.67138671875,0.1220703125,2689,-4209,-5822,17863,691,4813,98.1243896484375,3.7957763671875,26.4385986328125,347,3.47,0
472,25804,1.217,68923,1217,1,36,2003,-427,0.017578125,0.97802734375,-0.20849609375,4,-6,1,0.244140625,-0.3662109375,0.06103515625,3621,-4658,-2155,18566,-172,2772,101.986083984375,-0.94482421875,15.22705078125,356,3.56,0
473,25805,1.217,68923,1217,2,53,1909,738,0.02587890625,0.93212890625,0.3603515625,-1,10,6,-0.06103515625,0.6103515625,0.3662109375,-2333,-1931,3859,12614,-259,-27258,69.290771484375,-1.4227294921875,-149.732666015625,356,3.56,0
474,25806,1.224,68930,1224,2,53,1909,738,0.02587890625,0.93212890625,0.3603515625,-1,12,6,-0.06103515625,0.732421875,0.3662109375,-2362,-1936,3874,12614,-259,-27259,69.290771484375,-1.4227294921875,-149.7381591796875,356,3.56,0
475,25807,1.229,68935,1229,0,-2,1996,-378,-0.0009765625,0.974609375,-0.1845703125,0,-19,2,0.0,-1.15966796875,0.1220703125,2707,-4199,-5884,17855,701,4805,98.0804443359375,3.8507080078125,26.3946533203125,347,3.47,0
476,25808,1.231,68937,1231,2,52,1908,738,0.025390625,0.931640625,0.3603515625,1,16,8,0.06103515625,0.9765625,0.48828125,-2365,-1943,3869,12613,-259,-27259,69.2852783203125,-1.4227294921875,-149.7381591796875,357,3.57,0
477,25809,1.236,68942,1236,0,-4,1998,-379,-0.001953125,0.9755859375,-0.18505859375,4,-11,6,0.244140625,-0.67138671875,0.3662109375,2739,-4211,-5849,17851,706,4802,98.0584716796875,3.878173828125,26.378173828125,347,3.47,0
478,25810,1.238,68944,1238,2,51,1908,738,0.02490234375,0.931640625,0.3603515625,1,18,9,0.06103515625,1.0986328125,0.54931640625,-2373,-1974,3843,12613,-259,-27259,69.2852783203125,-1.4227294921875,-149.7381591796875,357,3.57,0
479,25811,1.243,68949,1243,0,-3,2000,-383,-0.00146484375,0.9765625,-0.18701171875,4,-6,8,0.244140625,-0.3662109375,0.48828125,2753,-4216,-5834,17850,708,4801,98.052978515625,3.88916015625,26.3726806640625,347,3.47,0
480,25812,1.245,68951,1245,2,49,1911,737,0.02392578125,0.93310546875,0.35986328125,1,18,13,0.06103515625,1.0986328125,0.79345703125,-2365,-1995,3899,12613,-259,-27260,69.2852783203125,-1.4227294921875,-149.74365234375,357,3.57,0
481,25813,1.25,68956,1250,0,-3,2000,-383,-0.00146484375,0.9765625,-0.18701171875,4,-6,8,0.244140625,-0.3662109375,0.48828125,2753,-4216,-5834,17850,708,4801,98.052978515625,3.88916015625,26.3726806640625,347,3.47,0
482,25814,1.252,68958,1252,2,47,1911,738,0.02294921875,0.93310546875,0.3603515625,2,18,15,0.1220703125,1.0986328125,0.91552734375,-2371,-1996,3912,12612,-259,-27260,69.27978515625,-1.4227294921875,-149.74365234375,357,3.57,0
483,25815,1.257,68963,1257,0,-6,2007,-383,-0.0029296875,0.97998046875,-0.18701171875,0,2,9,0.0,0.1220703125,0.54931640625,2759,-4191,-5807,17844,713,4798,98.02001953125,3.9166259765625,26.356201171875,347,3.47,0
484,25816,1.259,68965,1259,2,47,1911,738,0.02294921875,0.93310546875,0.3603515625,3,19,16,0.18310546875,1.15966796875,0.9765625,-2364,-2023,3891,12612,-259,-27260,69.27978515625,-1.4227294921875,-149.74365234375,357,3.57,0
485,25817,1.266,68972,1266,2,47,1910,739,0.02294921875,0.9326171875,0.36083984375,1,21,17,0.06103515625,1.28173828125,1.03759765625,-2377,-1992,3894,12612,-259,-27260,69.27978515625,-1.4227294921875,-149.74365234375,357,3.57,0
486,25818,1.271,68977,1271,0,-15,2007,-389,-0.00732421875,0.97998046875,-0.18994140625,-4,6,8,-0.244140625,0.3662109375,0.48828125,2747,-4195,-5827,17858,687,4806,98.096923828125,3.7738037109375,26.400146484375,347,3.47,0
487,25819,1.273,68979,1273,2,46,1908,740,0.0224609375,0.931640625,0.361328125,1,23,18,0.06103515625,1.40380859375,1.0986328125,-2393,-1985,3902,12611,-259,-27260,69.2742919921875,-1.4227294921875,-149.74365234375,357,3.57,0
488,25820,1.281,68987,1281,0,-18,2010,-388,-0.0087890625,0.9814453125,-0.189453125,-6,4,8,-0.3662109375,0.244140625,0.48828125,2734,-4201,-5794,17858,687,4806,98.096923828125,3.7738037109375,26.400146484375,347,3.47,0
489,25821,1.281,68987,1281,1,50,1992,-435,0.0244140625,0.97265625,-0.21240234375,8,3,-1,0.48828125,0.18310546875,-0.06103515625,3564,-4678,-2179,18566,-173,2773,101.986083984375,-0.9503173828125,15.2325439453125,358,3.58,0
490,25822,1.281,68987,1281,2,46,1907,740,0.0224609375,0.93115234375,0.361328125,1,24,19,0.06103515625,1.46484375,1.15966796875,-2377,-1992,3906,12611,-259,-27260,69.2742919921875,-1.4227294921875,-149.74365234375,358,3.58,0
491,25823,1.285,68991,1285,0,-15,2012,-391,-0.00732421875,0.982421875,-0.19091796875,-5,3,6,-0.30517578125,0.18310546875,0.3662109375,2741,-4204,-5770,17858,687,4804,98.096923828125,3.7738037109375,26.38916015625,347,3.47,0
492,25824,1.287,68993,1287,2,47,1904,742,0.02294921875,0.9296875,0.3623046875,5,25,19,0.30517578125,1.52587890625,1.15966796875,-2373,-1977,3901,12611,-259,-27261,69.2742919921875,-1.4227294921875,-149.7491455078125,358,3.58,0
493,25825,1.292,68998,1292,0,-22,2011,-390,-0.0107421875,0.98193359375,-0.1904296875,-8,5,3,-0.48828125,0.30517578125,0.18310546875,2716,-4225,-5719,17862,680,4806,98.118896484375,3.7353515625,26.400146484375,347,3.47,0
494,25826,1.294,69000,1294,2,48,1903,743,0.0234375,0.92919921875,0.36279296875,7,26,19,0.42724609375,1.5869140625,1.15966796875,-2379,-1965,3882,12609,-259,-27261,69.2633056640625,-1.4227294921875,-149.7491455078125,358,3.58,0
495,25827,1.299,69005,1299,0,-26,2011,-392,-0.0126953125,0.98193359375,-0.19140625,-5,5,2,-0.30517578125,0.30517578125,0.1220703125,2716,-4226,-5703,17862,680,4806,98.118896484375,3.7353515625,26.400146484375,347,3.47,0
496,25828,1.301,69007,1301,2,48,1903,743,0.0234375,0.92919921875,0.36279296875,9,30,19,0.54931640625,1.8310546875,1.15966796875,-2411,-1964,3900,12609,-259,-27262,69.2633056640625,-1.4227294921875,-149.754638671875,358,3.58,0
497,25829,1.307,69013,1307,1,41,1991,-434,0.02001953125,0.97216796875,-0.2119140625,5,17,1,0.30517578125,1.03759765625,0.06103515625,3542,-4673,-2230,18566,-173,2773,101.986083984375,-0.9503173828125,15.2325439453125,358,3.58,0
498,25830,1.308,69014,1308,2,48,1903,743,0.0234375,0.92919921875,0.36279296875,9,31,20,0.54931640625,1.89208984375,1.220703125,-2406,-1950,3890,12609,-259,-27262,69.2633056640625,-1.4227294921875,-149.754638671875,358,3.58,0
499,25831,1.313,69019,1313,0,-20,2005,-391,-0.009765625,0.97900390625,-0.19091796875,-8,6,-6,-0.48828125,0.3662109375,-0.3662109375,2697,-4203,-5696,17864,676,4805,98.1298828125,3.71337890625,26.3946533203125,347,3.47,0
500,25832,1.314,69020,1314,1,40,1999,-432,0.01953125,0.97607421875,-0.2109375,2,21,2,0.1220703125,1.28173828125,0.1220703125,3551,-4681,-2205,18567,-173,2773,101.9915771484375,-0.9503173828125,15.2325439453125,357,3.57,0
501,25833,1.315,69021,1315,2,48,1903,743,0.0234375,0.92919921875,0.36279296875,9,33,21,0.54931640625,2.01416015625,1.28173828125,-2380,-1950,3868,12608,-259,-27262,69.2578125,-1.4227294921875,-149.754638671875,358,3.58,0
502,25834,1.32,69026,1320,0,-19,2000,-391,-0.00927734375,0.9765625,-0.19091796875,-11,3,-8,-0.67138671875,0.18310546875,-0.48828125,2724,-4206,-5705,17864,676,4805,98.1298828125,3.71337890625,26.3946533203125,347,3.47,0
503,25835,1.322,69028,1322,2,49,1904,741,0.02392578125,0.9296875,0.36181640625,10,34,21,0.6103515625,2.0751953125,1.28173828125,-2386,-1966,3913,12608,-259,-27263,69.2578125,-1.4227294921875,-149.7601318359375,357,3.57,0
504,25836,1.327,69033,1327,0,-10,1996,-392,-0.0048828125,0.974609375,-0.19140625,-10,6,-8,-0.6103515625,0.3662109375,-0.48828125,2714,-4218,-5681,17864,676,4803,98.1298828125,3.71337890625,26.3836669921875,347,3.47,0
505,25837,1.329,69035,1329,2,49,1905,740,0.02392578125,0.93017578125,0.361328125,9,31,22,0.54931640625,1.89208984375,1.3427734375,-2389,-1973,3925,12608,-259,-27263,69.2578125,-1.4227294921875,-149.7601318359375,357,3.57,0
506,25838,1.334,69040,1334,0,-6,1991,-388,-0.0029296875,0.97216796875,-0.189453125,-2,6,-10,-0.1220703125,0.3662109375,-0.6103515625,2717,-4212,-5699,17867,673,4804,98.1463623046875,3.6968994140625,26.38916015625,348,3.48,0
507,25839,1.336,69042,1336,2,47,1908,740,0.02294921875,0.931640625,0.361328125,4,30,25,0.244140625,1.8310546875,1.52587890625,-2388,-1963,3923,12607,-259,-27263,69.2523193359375,-1.4227294921875,-149.7601318359375,357,3.57,0
508,25840,1.345,69051,1345,1,31,1994,-439,0.01513671875,0.9736328125,-0.21435546875,-8,18,-2,-0.48828125,1.0986328125,-0.1220703125,3581,-4653,-2178,18567,-173,2773,101.9915771484375,-0.9503173828125,15.2325439453125,356,3.56,0
509,25841,1.345,69051,1345,2,46,1910,742,0.0224609375,0.9326171875,0.3623046875,1,35,24,0.06103515625,2.13623046875,1.46484375,-2394,-1949,3931,12607,-259,-27263,69.2523193359375,-1.4227294921875,-149.7601318359375,357,3.57,0
510,25842,1.349,69055,1349,1,28,1985,-443,0.013671875,0.96923828125,-0.21630859375,-6,9,-2,-0.3662109375,0.54931640625,-0.1220703125,3583,-4659,-2155,18567,-173,2773,101.9915771484375,-0.9503173828125,15.2325439453125,356,3.56,0
511,25843,1.35,69056,1350,2,44,1914,743,0.021484375,0.9345703125,0.36279296875,0,29,20,0.0,1.77001953125,1.220703125,-2384,-1937,3894,12607,-259,-27263,69.2523193359375,-1.4227294921875,-149.7601318359375,357,3.57,0
512,25844,1.369,69075,1369,0,13,2000,-392,0.00634765625,0.9765625,-0.19140625,4,6,5,0.244140625,0.3662109375,0.30517578125,2702,-4214,-5730,17869,669,4803,98.1573486328125,3.6749267578125,26.3836669921875,348,3.48,0
513,25845,1.371,69077,1371,2,37,1931,735,0.01806640625,0.94287109375,0.35888671875,1,10,26,0.06103515625,0.6103515625,1.5869140625,-2444,-2010,3939,12609,-262,-27258,69.2633056640625,-1.439208984375,-149.732666015625,357,3.57,0
514,25846,1.376,69082,1376,0,15,2015,-388,0.00732421875,0.98388671875,-0.189453125,7,4,15,0.42724609375,0.244140625,0.91552734375,2711,-4204,-5736,17869,669,4800,98.1573486328125,3.6749267578125,26.3671875,348,3.48,0
515,25847,1.378,69084,1378,2,40,1933,731,0.01953125,0.94384765625,0.35693359375,-8,15,24,-0.48828125,0.91552734375,1.46484375,-2452,-2024,3942,12609,-262,-27256,69.2633056640625,-1.439208984375,-149.7216796875,357,3.57,0
516,25848,1.383,69089,1383,0,8,2023,-382,0.00390625,0.98779296875,-0.1865234375,5,-12,15,0.30517578125,-0.732421875,0.91552734375,2714,-4219,-5744,17871,665,4799,98.1683349609375,3.6529541015625,26.3616943359375,348,3.48,0
517,25849,1.385,69091,1385,2,42,1933,729,0.0205078125,0.94384765625,0.35595703125,-17,20,22,-1.03759765625,1.220703125,1.3427734375,-2459,-2036,3945,12608,-262,-27254,69.2578125,-1.439208984375,-149.710693359375,357,3.57,0
518,25850,1.39,69096,1390,0,11,2024,-379,0.00537109375,0.98828125,-0.18505859375,2,-18,16,0.1220703125,-1.0986328125,0.9765625,2717,-4234,-5730,17871,665,4799,98.1683349609375,3.6529541015625,26.3616943359375,348,3.48,0
519,25851,1.392,69098,1392,2,45,1929,732,0.02197265625,0.94189453125,0.357421875,-24,29,17,-1.46484375,1.77001953125,1.03759765625,-2443,-2051,3922,12606,-262,-27250,69.246826171875,-1.439208984375,-149.688720703125,357,3.57,0
520,25852,1.397,69103,1397,0,2,2025,-372,0.0009765625,0.98876953125,-0.181640625,-8,-26,14,-0.48828125,-1.5869140625,0.8544921875,2719,-4262,-5752,17874,661,4800,98.184814453125,3.6309814453125,26.3671875,348,3.48,0
521,25853,1.399,69105,1399,2,44,1926,736,0.021484375,0.9404296875,0.359375,-22,28,16,-1.3427734375,1.708984375,0.9765625,-2436,-2048,3900,12605,-262,-27248,69.2413330078125,-1.439208984375,-149.677734375,357,3.57,0
522,25854,1.404,69110,1404,0,0,2023,-362,0.0,0.98779296875,-0.1767578125,-11,-26,12,-0.67138671875,-1.5869140625,0.732421875,2717,-4259,-5763,17873,661,4798,98.1793212890625,3.6309814453125,26.356201171875,348,3.48,0
523,25855,1.405,69111,1405,1,23,1991,-456,0.01123046875,0.97216796875,-0.22265625,15,-5,-7,0.91552734375,-0.30517578125,-0.42724609375,3582,-4712,-2048,18568,-173,2775,101.9970703125,-0.9503173828125,15.2435302734375,356,3.56,0
524,25856,1.406,69112,1406,2,43,1924,739,0.02099609375,0.939453125,0.36083984375,-18,23,16,-1.0986328125,1.40380859375,0.9765625,-2396,-2032,3908,12605,-262,-27247,69.2413330078125,-1.439208984375,-149.6722412109375,357,3.57,0
525,25857,1.411,69117,1411,0,-3,2022,-358,-0.00146484375,0.9873046875,-0.1748046875,-14,-26,13,-0.8544921875,-1.5869140625,0.79345703125,2719,-4255,-5772,17873,661,4798,98.1793212890625,3.6309814453125,26.356201171875,348,3.48,0
526,25858,1.413,69119,1413,2,42,1919,746,0.0205078125,0.93701171875,0.3642578125,-4,13,14,-0.244140625,0.79345703125,0.8544921875,-2389,-2050,3947,12605,-261,-27244,69.2413330078125,-1.4337158203125,-149.65576171875,357,3.57,0
527,25859,1.432,69138,1432,0,-11,2019,-352,-0.00537109375,0.98583984375,-0.171875,-15,-22,8,-0.91552734375,-1.3427734375,0.48828125,2735,-4246,-5788,17875,657,4799,98.1903076171875,3.6090087890625,26.3616943359375,348,3.48,0
528,25860,1.432,69138,1432,1,33,1988,-451,0.01611328125,0.970703125,-0.22021484375,15,-5,-5,0.91552734375,-0.30517578125,-0.30517578125,3559,-4720,-2055,18569,-173,2775,102.0025634765625,-0.9503173828125,15.2435302734375,356,3.56,0
529,25861,1.434,69140,1434,2,48,1917,746,0.0234375,0.93603515625,0.3642578125,-4,17,11,-0.244140625,1.03759765625,0.67138671875,-2389,-2034,3938,12605,-261,-27239,69.2413330078125,-1.4337158203125,-149.6282958984375,357,3.57,0
530,25862,1.439,69145,1439,0,-18,2014,-351,-0.0087890625,0.9833984375,-0.17138671875,-10,4,0,-0.6103515625,0.244140625,0.0,2729,-4322,-5826,17877,653,4798,98.2012939453125,3.5870361328125,26.356201171875,348,3.48,0
531,25863,1.441,69147,1441,2,47,1916,745,0.02294921875,0.935546875,0.36376953125,-1,14,12,-0.06103515625,0.8544921875,0.732421875,-2374,-2002,3930,12606,-261,-27237,69.246826171875,-1.4337158203125,-149.6173095703125,357,3.57,0
532,25864,1.446,69152,1446,0,-16,2012,-352,-0.0078125,0.982421875,-0.171875,-11,7,0,-0.67138671875,0.42724609375,0.0,2742,-4331,-5822,17877,653,4795,98.2012939453125,3.5870361328125,26.3397216796875,348,3.48,0
533,25865,1.448,69154,1448,2,46,1914,742,0.0224609375,0.9345703125,0.3623046875,-3,14,11,-0.18310546875,0.8544921875,0.67138671875,-2347,-2002,3979,12606,-260,-27235,69.246826171875,-1.42822265625,-149.6063232421875,357,3.57,0
534,25866,1.453,69159,1453,0,-16,2010,-357,-0.0078125,0.9814453125,-0.17431640625,-12,23,4,-0.732421875,1.40380859375,0.244140625,2737,-4310,-5785,17878,650,4796,98.206787109375,3.570556640625,26.34521484375,348,3.48,0
535,25867,1.455,69161,1455,2,44,1913,740,0.021484375,0.93408203125,0.361328125,-6,12,10,-0.3662109375,0.732421875,0.6103515625,-2365,-2015,3969,12606,-260,-27234,69.246826171875,-1.42822265625,-149.600830078125,357,3.57,0
536,25868,1.46,69166,1460,0,-12,2008,-366,-0.005859375,0.98046875,-0.1787109375,-16,27,2,-0.9765625,1.64794921875,0.1220703125,2753,-4302,-5798,17876,652,4797,98.19580078125,3.58154296875,26.3507080078125,348,3.48,0
537,25869,1.462,69168,1462,2,40,1910,738,0.01953125,0.9326171875,0.3603515625,-9,12,10,-0.54931640625,0.732421875,0.6103515625,-2366,-2045,3922,12606,-259,-27232,69.246826171875,-1.4227294921875,-149.58984375,357,3.57,0
