record_index,sequence,time_s,tick_ms,tick_elapsed_ms,device_id,accel_x_raw,accel_y_raw,accel_z_raw,accel_x_g,accel_y_g,accel_z_g,gyro_x_raw,gyro_y_raw,gyro_z_raw,gyro_x_dps,gyro_y_dps,gyro_z_dps,mag_x_raw,mag_y_raw,mag_z_raw,angle_x_raw,angle_y_raw,angle_z_raw,angle_x_deg,angle_y_deg,angle_z_deg,battery_raw,battery_voltage,sequence_gap_before
0,56533,0.0,158817,0,0,24,2001,-382,0.01171875,0.97705078125,-0.1865234375,21,-91,32,1.28173828125,-5.55419921875,1.953125,3398,-3467,-5223,18014,266,31382,98.953857421875,1.461181640625,172.386474609375,348,3.48,0
1,56534,0.0,158817,0,1,-68,1985,-416,-0.033203125,0.96923828125,-0.203125,53,45,-6,3.23486328125,2.74658203125,-0.3662109375,2954,-4285,-519,18457,91,8919,101.3873291015625,0.4998779296875,48.9935302734375,355,3.55,0
2,56535,0.006,158823,6,0,24,2027,-313,0.01171875,0.98974609375,-0.15283203125,20,-68,39,1.220703125,-4.150390625,2.38037109375,3357,-3455,-5147,18025,257,31338,99.0142822265625,1.4117431640625,172.144775390625,349,3.49,0
3,56536,0.007,158824,7,1,-59,2013,-421,-0.02880859375,0.98291015625,-0.20556640625,31,29,-5,1.89208984375,1.77001953125,-0.30517578125,2960,-4323,-500,18471,94,8941,101.4642333984375,0.516357421875,49.1143798828125,355,3.55,0
4,56537,0.008,158825,8,2,-113,1916,705,-0.05517578125,0.935546875,0.34423828125,-23,-47,-3,-1.40380859375,-2.86865234375,-0.18310546875,-4625,-4127,1463,12620,589,-21784,69.32373046875,3.2354736328125,-119.6630859375,355,3.55,0
5,56538,0.013,158830,13,0,20,2032,-311,0.009765625,0.9921875,-0.15185546875,16,-63,36,0.9765625,-3.84521484375,2.197265625,3341,-3450,-5138,18025,256,31330,99.0142822265625,1.40625,172.100830078125,349,3.49,0
6,56539,0.014,158831,14,1,-56,2001,-426,-0.02734375,0.97705078125,-0.2080078125,25,13,3,1.52587890625,0.79345703125,0.18310546875,2993,-4309,-530,18473,93,8944,101.4752197265625,0.5108642578125,49.130859375,354,3.54,0
7,56540,0.015,158832,15,2,-115,1915,713,-0.05615234375,0.93505859375,0.34814453125,-10,-53,-4,-0.6103515625,-3.23486328125,-0.244140625,-4643,-4140,1464,12589,587,-21800,69.1534423828125,3.2244873046875,-119.7509765625,355,3.55,0
8,56541,0.02,158837,20,0,13,2029,-303,0.00634765625,0.99072265625,-0.14794921875,1,-54,31,0.06103515625,-3.2958984375,1.89208984375,3338,-3440,-5106,18017,247,31334,98.9703369140625,1.3568115234375,172.122802734375,349,3.49,0
9,56542,0.021,158838,21,1,-47,2000,-423,-0.02294921875,0.9765625,-0.20654296875,27,5,8,1.64794921875,0.30517578125,0.48828125,2999,-4313,-579,18472,93,8945,101.4697265625,0.5108642578125,49.1363525390625,354,3.54,0
10,56543,0.022,158839,22,2,-115,1915,715,-0.05615234375,0.93505859375,0.34912109375,-8,-56,-5,-0.48828125,-3.41796875,-0.30517578125,-4659,-4153,1446,12589,587,-21800,69.1534423828125,3.2244873046875,-119.7509765625,355,3.55,0
11,56544,0.027,158844,27,0,14,2025,-295,0.0068359375,0.98876953125,-0.14404296875,-2,-48,25,-0.1220703125,-2.9296875,1.52587890625,3349,-3448,-5156,18017,247,31333,98.9703369140625,1.3568115234375,172.1173095703125,349,3.49,0
12,56545,0.028,158845,28,1,-43,2006,-425,-0.02099609375,0.9794921875,-0.20751953125,36,-22,16,2.197265625,-1.3427734375,0.9765625,2975,-4281,-585,18476,92,8944,101.49169921875,0.50537109375,49.130859375,354,3.54,0
13,56546,0.029,158846,29,2,-112,1915,715,-0.0546875,0.93505859375,0.34912109375,-10,-55,-5,-0.6103515625,-3.35693359375,-0.30517578125,-4668,-4155,1435,12589,587,-21808,69.1534423828125,3.2244873046875,-119.794921875,355,3.55,0
14,56547,0.034,158851,34,0,14,2025,-295,0.0068359375,0.98876953125,-0.14404296875,-2,-48,25,-0.1220703125,-2.9296875,1.52587890625,3349,-3448,-5156,18017,247,31333,98.9703369140625,1.3568115234375,172.1173095703125,349,3.49,0
15,56548,0.035,158852,35,1,-42,2010,-426,-0.0205078125,0.9814453125,-0.2080078125,37,-49,16,2.25830078125,-2.99072265625,0.9765625,2962,-4270,-562,18478,92,8941,101.502685546875,0.50537109375,49.1143798828125,354,3.54,0
16,56549,0.036,158853,36,2,-104,1919,714,-0.05078125,0.93701171875,0.3486328125,-17,-54,-6,-1.03759765625,-3.2958984375,-0.3662109375,-4657,-4159,1412,12571,578,-21820,69.0545654296875,3.175048828125,-119.86083984375,355,3.55,0
17,56550,0.041,158858,41,0,8,2025,-300,0.00390625,0.98876953125,-0.146484375,2,-19,26,0.1220703125,-1.15966796875,1.5869140625,3366,-3435,-5235,18009,238,31334,98.9263916015625,1.307373046875,172.122802734375,349,3.49,0
18,56551,0.042,158859,42,1,-36,2014,-423,-0.017578125,0.9833984375,-0.20654296875,35,-67,21,2.13623046875,-4.08935546875,1.28173828125,2955,-4288,-542,18479,91,8937,101.5081787109375,0.4998779296875,49.0924072265625,354,3.54,0
19,56552,0.043,158860,43,2,-100,1920,716,-0.048828125,0.9375,0.349609375,-17,-53,-5,-1.03759765625,-3.23486328125,-0.30517578125,-4667,-4151,1429,12571,578,-21820,69.0545654296875,3.175048828125,-119.86083984375,355,3.55,0
20,56553,0.048,158865,48,0,9,2030,-305,0.00439453125,0.9912109375,-0.14892578125,9,-8,28,0.54931640625,-0.48828125,1.708984375,3370,-3458,-5244,18010,237,31334,98.931884765625,1.3018798828125,172.122802734375,349,3.49,0
21,56554,0.049,158866,49,1,-32,2000,-417,-0.015625,0.9765625,-0.20361328125,27,-86,26,1.64794921875,-5.2490234375,1.5869140625,2986,-4291,-556,18482,90,8929,101.524658203125,0.494384765625,49.0484619140625,354,3.54,0
22,56555,0.05,158867,50,2,-95,1920,716,-0.04638671875,0.9375,0.349609375,-14,-52,-5,-0.8544921875,-3.173828125,-0.30517578125,-4655,-4160,1415,12570,578,-21818,69.049072265625,3.175048828125,-119.849853515625,354,3.54,0
23,56556,0.055,158872,55,0,3,2044,-312,0.00146484375,0.998046875,-0.15234375,9,7,34,0.54931640625,0.42724609375,2.0751953125,3368,-3442,-5204,18011,233,31331,98.9373779296875,1.2799072265625,172.1063232421875,349,3.49,0
24,56557,0.056,158873,56,1,-28,1998,-418,-0.013671875,0.9755859375,-0.2041015625,19,-88,29,1.15966796875,-5.37109375,1.77001953125,2974,-4294,-572,18483,90,8924,101.5301513671875,0.494384765625,49.02099609375,354,3.54,0
25,56558,0.057,158874,57,2,-90,1923,714,-0.0439453125,0.93896484375,0.3486328125,-14,-50,-6,-0.8544921875,-3.0517578125,-0.3662109375,-4656,-4198,1362,12561,556,-21829,68.9996337890625,3.05419921875,-119.9102783203125,354,3.54,0
26,56559,0.062,158879,62,0,-3,2044,-313,-0.00146484375,0.998046875,-0.15283203125,7,10,32,0.42724609375,0.6103515625,1.953125,3348,-3447,-5224,18004,226,31341,98.89892578125,1.241455078125,172.1612548828125,349,3.49,0
27,56560,0.063,158880,63,1,-23,1980,-414,-0.01123046875,0.966796875,-0.2021484375,17,-89,28,1.03759765625,-5.43212890625,1.708984375,2965,-4285,-601,18484,89,8914,101.53564453125,0.4888916015625,48.966064453125,354,3.54,0
28,56561,0.064,158881,64,2,-89,1923,713,-0.04345703125,0.93896484375,0.34814453125,-16,-50,-6,-0.9765625,-3.0517578125,-0.3662109375,-4654,-4164,1388,12561,556,-21829,68.9996337890625,3.05419921875,-119.9102783203125,354,3.54,0
29,56562,0.073,158890,73,0,-3,2044,-313,-0.00146484375,0.998046875,-0.15283203125,7,10,32,0.42724609375,0.6103515625,1.953125,3348,-3447,-5224,18004,226,31341,98.89892578125,1.241455078125,172.1612548828125,349,3.49,0
30,56563,0.073,158890,73,1,-23,1973,-409,-0.01123046875,0.96337890625,-0.19970703125,17,-89,28,1.03759765625,-5.43212890625,1.708984375,2979,-4293,-572,18485,88,8910,101.5411376953125,0.4833984375,48.944091796875,354,3.54,0
31,56564,0.073,158890,73,2,-90,1924,711,-0.0439453125,0.939453125,0.34716796875,-16,-46,-7,-0.9765625,-2.8076171875,-0.42724609375,-4655,-4144,1382,12561,556,-21821,68.9996337890625,3.05419921875,-119.8663330078125,354,3.54,0
32,56565,0.076,158893,76,0,-13,2032,-333,-0.00634765625,0.9921875,-0.16259765625,-11,-6,28,-0.67138671875,-0.3662109375,1.708984375,3349,-3470,-5214,18003,222,31337,98.8934326171875,1.219482421875,172.1392822265625,348,3.48,0
33,56566,0.077,158894,77,1,-23,1974,-409,-0.01123046875,0.9638671875,-0.19970703125,13,-91,21,0.79345703125,-5.55419921875,1.28173828125,2986,-4285,-560,18485,88,8905,101.5411376953125,0.4833984375,48.9166259765625,354,3.54,0
34,56567,0.078,158895,78,2,-92,1924,712,-0.044921875,0.939453125,0.34765625,-14,-43,-8,-0.8544921875,-2.62451171875,-0.48828125,-4670,-4159,1398,12559,537,-21827,68.9886474609375,2.9498291015625,-119.8992919921875,354,3.54,0
35,56568,0.083,158900,83,0,-7,2029,-340,-0.00341796875,0.99072265625,-0.166015625,-14,-22,28,-0.8544921875,-1.3427734375,1.708984375,3338,-3478,-5206,17995,216,31345,98.8494873046875,1.1865234375,172.1832275390625,348,3.48,0
36,56569,0.084,158901,84,1,-23,1977,-418,-0.01123046875,0.96533203125,-0.2041015625,15,-103,15,0.91552734375,-6.28662109375,0.91552734375,2938,-4273,-581,18486,89,8894,101.546630859375,0.4888916015625,48.856201171875,354,3.54,0
37,56570,0.085,158902,85,2,-94,1924,712,-0.0458984375,0.939453125,0.34765625,-13,-43,-9,-0.79345703125,-2.62451171875,-0.54931640625,-4660,-4179,1371,12559,537,-21827,68.9886474609375,2.9498291015625,-119.8992919921875,354,3.54,0
38,56571,0.09,158907,90,0,-1,2023,-350,-0.00048828125,0.98779296875,-0.1708984375,-14,-52,26,-0.8544921875,-3.173828125,1.5869140625,3344,-3474,-5201,17994,215,31335,98.843994140625,1.1810302734375,172.1282958984375,348,3.48,0
39,56572,0.091,158908,91,1,-19,1983,-426,-0.00927734375,0.96826171875,-0.2080078125,17,-113,10,1.03759765625,-6.89697265625,0.6103515625,2938,-4277,-601,18487,90,8889,101.5521240234375,0.494384765625,48.8287353515625,355,3.55,0
40,56573,0.092,158909,92,2,-96,1920,712,-0.046875,0.9375,0.34765625,-5,-41,-12,-0.30517578125,-2.50244140625,-0.732421875,-4650,-4190,1385,12559,537,-21818,68.9886474609375,2.9498291015625,-119.849853515625,354,3.54,0
41,56574,0.097,158914,97,0,10,2018,-352,0.0048828125,0.9853515625,-0.171875,-11,-66,24,-0.67138671875,-4.0283203125,1.46484375,3334,-3467,-5188,17994,214,31332,98.843994140625,1.175537109375,172.11181640625,348,3.48,0
42,56575,0.098,158915,98,1,-5,1997,-444,-0.00244140625,0.97509765625,-0.216796875,26,-115,4,1.5869140625,-7.01904296875,0.244140625,2922,-4257,-563,18489,92,8878,101.5631103515625,0.50537109375,48.768310546875,355,3.55,0
43,56576,0.099,158916,99,2,-97,1917,711,-0.04736328125,0.93603515625,0.34716796875,-2,-42,-12,-0.1220703125,-2.5634765625,-0.732421875,-4653,-4193,1384,12558,526,-21821,68.983154296875,2.889404296875,-119.8663330078125,355,3.55,0
44,56577,0.104,158921,104,0,10,2018,-352,0.0048828125,0.9853515625,-0.171875,-11,-66,24,-0.67138671875,-4.0283203125,1.46484375,3334,-3467,-5188,17994,214,31332,98.843994140625,1.175537109375,172.11181640625,348,3.48,0
45,56578,0.105,158922,105,1,5,2005,-453,0.00244140625,0.97900390625,-0.22119140625,22,-105,2,1.3427734375,-6.40869140625,0.1220703125,2916,-4257,-563,18490,93,8872,101.568603515625,0.5108642578125,48.7353515625,355,3.55,0
46,56579,0.106,158923,106,2,-98,1912,709,-0.0478515625,0.93359375,0.34619140625,-1,-40,-13,-0.06103515625,-2.44140625,-0.79345703125,-4661,-4166,1402,12558,526,-21819,68.983154296875,2.889404296875,-119.8553466796875,355,3.55,0
47,56580,0.111,158928,111,0,21,2004,-337,0.01025390625,0.978515625,-0.16455078125,-8,-83,21,-0.48828125,-5.06591796875,1.28173828125,3385,-3474,-5151,17993,214,31316,98.8385009765625,1.175537109375,172.02392578125,348,3.48,0
48,56581,0.112,158929,112,1,15,2011,-457,0.00732421875,0.98193359375,-0.22314453125,18,-99,2,1.0986328125,-6.04248046875,0.1220703125,2911,-4283,-552,18491,94,8868,101.5740966796875,0.516357421875,48.71337890625,355,3.55,0
49,56582,0.113,158930,113,2,-100,1910,707,-0.048828125,0.9326171875,0.34521484375,-1,-41,-12,-0.06103515625,-2.50244140625,-0.732421875,-4659,-4157,1376,12558,526,-21819,68.983154296875,2.889404296875,-119.8553466796875,355,3.55,0
50,56583,0.118,158935,118,0,23,1998,-338,0.01123046875,0.9755859375,-0.1650390625,-3,-81,23,-0.18310546875,-4.94384765625,1.40380859375,3364,-3455,-5178,17993,213,31312,98.8385009765625,1.1700439453125,172.001953125,348,3.48,0
51,56584,0.119,158936,119,1,24,2016,-470,0.01171875,0.984375,-0.2294921875,12,-77,9,0.732421875,-4.69970703125,0.54931640625,2895,-4283,-504,18490,95,8861,101.568603515625,0.5218505859375,48.6749267578125,356,3.56,0
52,56585,0.12,158937,120,2,-102,1910,705,-0.0498046875,0.9326171875,0.34423828125,-2,-41,-9,-0.1220703125,-2.50244140625,-0.54931640625,-4676,-4180,1420,12558,521,-21820,68.983154296875,2.8619384765625,-119.86083984375,355,3.55,0
53,56586,0.125,158942,125,0,21,1993,-333,0.01025390625,0.97314453125,-0.16259765625,4,-76,23,0.244140625,-4.638671875,1.40380859375,3370,-3485,-5205,17987,208,31313,98.8055419921875,1.142578125,172.0074462890625,347,3.47,0
54,56587,0.126,158943,126,1,29,2013,-469,0.01416015625,0.98291015625,-0.22900390625,12,-60,11,0.732421875,-3.662109375,0.67138671875,2925,-4269,-512,18490,95,8858,101.568603515625,0.5218505859375,48.658447265625,356,3.56,0
55,56588,0.127,158944,127,2,-107,1910,702,-0.05224609375,0.9326171875,0.3427734375,0,-44,-2,0.0,-2.685546875,-0.1220703125,-4662,-4161,1417,12558,521,-21825,68.983154296875,2.8619384765625,-119.8883056640625,355,3.55,0
56,56589,0.136,158953,136,0,19,1999,-329,0.00927734375,0.97607421875,-0.16064453125,5,-67,25,0.30517578125,-4.08935546875,1.52587890625,3378,-3487,-5200,17988,208,31305,98.81103515625,1.142578125,171.9635009765625,347,3.47,0
57,56590,0.136,158953,136,1,32,2017,-475,0.015625,0.98486328125,-0.23193359375,6,-44,17,0.3662109375,-2.685546875,1.03759765625,2928,-4277,-515,18490,95,8857,101.568603515625,0.5218505859375,48.6529541015625,356,3.56,0
58,56591,0.136,158953,136,2,-109,1911,701,-0.05322265625,0.93310546875,0.34228515625,2,-43,1,0.1220703125,-2.62451171875,0.06103515625,-4677,-4142,1395,12558,521,-21825,68.983154296875,2.8619384765625,-119.8883056640625,355,3.55,0
59,56592,0.139,158956,139,0,14,2002,-332,0.0068359375,0.9775390625,-0.162109375,4,-62,24,0.244140625,-3.7841796875,1.46484375,3366,-3498,-5178,17988,207,31302,98.81103515625,1.1370849609375,171.947021484375,347,3.47,0
60,56593,0.14,158957,140,1,32,2007,-484,0.015625,0.97998046875,-0.236328125,-12,-22,21,-0.732421875,-1.3427734375,1.28173828125,2942,-4291,-570,18487,93,8856,101.5521240234375,0.5108642578125,48.6474609375,356,3.56,0
61,56594,0.141,158958,141,2,-112,1913,698,-0.0546875,0.93408203125,0.3408203125,1,-45,7,0.06103515625,-2.74658203125,0.42724609375,-4648,-4150,1404,12560,522,-21823,68.994140625,2.867431640625,-119.8773193359375,355,3.55,0
62,56595,0.146,158963,146,0,15,2009,-334,0.00732421875,0.98095703125,-0.1630859375,0,-35,21,0.0,-2.13623046875,1.28173828125,3359,-3470,-5137,17983,202,31307,98.7835693359375,1.109619140625,171.9744873046875,347,3.47,0
63,56596,0.147,158964,147,1,29,1986,-483,0.01416015625,0.9697265625,-0.23583984375,-12,-11,27,-0.732421875,-0.67138671875,1.64794921875,2945,-4291,-580,18486,92,8856,101.546630859375,0.50537109375,48.6474609375,356,3.56,0
64,56597,0.156,158973,156,2,-111,1913,697,-0.05419921875,0.93408203125,0.34033203125,-1,-42,10,-0.06103515625,-2.5634765625,0.6103515625,-4662,-4188,1415,12560,522,-21822,68.994140625,2.867431640625,-119.871826171875,355,3.55,0
65,56598,0.16,158977,160,0,15,2012,-340,0.00732421875,0.982421875,-0.166015625,-1,-24,19,-0.06103515625,-1.46484375,1.15966796875,3357,-3480,-5157,17983,201,31302,98.7835693359375,1.1041259765625,171.947021484375,347,3.47,0
66,56599,0.161,158978,161,1,-9,1950,-494,-0.00439453125,0.9521484375,-0.2412109375,-15,-6,25,-0.91552734375,-0.3662109375,1.52587890625,2963,-4263,-623,18481,88,8858,101.5191650390625,0.4833984375,48.658447265625,356,3.56,0
67,56600,0.162,158979,162,2,-111,1915,699,-0.05419921875,0.93505859375,0.34130859375,5,-41,13,0.30517578125,-2.50244140625,0.79345703125,-4676,-4178,1434,12565,526,-21819,69.0216064453125,2.889404296875,-119.8553466796875,355,3.55,0
68,56601,0.167,158984,167,0,8,2020,-344,0.00390625,0.986328125,-0.16796875,-11,8,13,-0.67138671875,0.48828125,0.79345703125,3315,-3511,-5097,17977,196,31311,98.7506103515625,1.07666015625,171.9964599609375,347,3.47,0
69,56602,0.168,158985,168,1,-3,1946,-475,-0.00146484375,0.9501953125,-0.23193359375,13,-5,20,0.79345703125,-0.30517578125,1.220703125,2949,-4278,-636,18482,87,8858,101.524658203125,0.4779052734375,48.658447265625,356,3.56,0
70,56603,0.169,158986,169,2,-111,1916,699,-0.05419921875,0.935546875,0.34130859375,5,-42,12,0.30517578125,-2.5634765625,0.732421875,-4678,-4171,1425,12565,526,-21821,69.0216064453125,2.889404296875,-119.8663330078125,355,3.55,0
71,56604,0.174,158991,174,0,5,2021,-345,0.00244140625,0.98681640625,-0.16845703125,-11,14,10,-0.67138671875,0.8544921875,0.6103515625,3321,-3514,-5082,17977,195,31308,98.7506103515625,1.0711669921875,171.97998046875,347,3.47,0
72,56605,0.175,158992,175,1,-1,1966,-466,-0.00048828125,0.9599609375,-0.2275390625,28,-3,9,1.708984375,-0.18310546875,0.54931640625,2962,-4273,-594,18484,86,8859,101.53564453125,0.472412109375,48.6639404296875,356,3.56,0
73,56606,0.176,158993,176,2,-111,1917,700,-0.05419921875,0.93603515625,0.341796875,3,-41,13,0.18310546875,-2.50244140625,0.79345703125,-4679,-4162,1417,12565,526,-21821,69.0216064453125,2.889404296875,-119.8663330078125,355,3.55,0
74,56607,0.181,158998,181,0,1,2014,-353,0.00048828125,0.9833984375,-0.17236328125,-21,27,8,-1.28173828125,1.64794921875,0.48828125,3304,-3523,-5115,17970,191,31319,98.712158203125,1.0491943359375,172.0404052734375,348,3.48,0
75,56608,0.182,158999,182,1,-5,1975,-460,-0.00244140625,0.96435546875,-0.224609375,19,2,3,1.15966796875,0.1220703125,0.18310546875,2953,-4285,-576,18484,86,8860,101.53564453125,0.472412109375,48.66943359375,356,3.56,0
76,56609,0.183,159000,183,2,-109,1919,701,-0.05322265625,0.93701171875,0.34228515625,-3,-41,11,-0.18310546875,-2.50244140625,0.67138671875,-4698,-4145,1479,12569,530,-21817,69.0435791015625,2.911376953125,-119.8443603515625,355,3.55,0
77,56610,0.188,159005,188,0,7,2009,-354,0.00341796875,0.98095703125,-0.1728515625,-21,29,4,-1.28173828125,1.77001953125,0.244140625,3296,-3497,-5097,17969,191,31322,98.7066650390625,1.0491943359375,172.056884765625,348,3.48,0
78,56611,0.189,159006,189,1,-15,1979,-455,-0.00732421875,0.96630859375,-0.22216796875,8,6,-3,0.48828125,0.3662109375,-0.18310546875,2962,-4302,-570,18485,87,8862,101.5411376953125,0.4779052734375,48.680419921875,356,3.56,0
79,56612,0.19,159007,190,2,-107,1920,702,-0.05224609375,0.9375,0.3427734375,-4,-40,9,-0.244140625,-2.44140625,0.54931640625,-4704,-4169,1441,12569,530,-21822,69.0435791015625,2.911376953125,-119.871826171875,355,3.55,0
80,56613,0.195,159012,195,0,7,2009,-354,0.00341796875,0.98095703125,-0.1728515625,-21,29,4,-1.28173828125,1.77001953125,0.244140625,3296,-3497,-5097,17969,191,31322,98.7066650390625,1.0491943359375,172.056884765625,348,3.48,0
81,56614,0.196,159013,196,1,-18,1978,-452,-0.0087890625,0.9658203125,-0.220703125,14,7,-6,0.8544921875,0.42724609375,-0.3662109375,2960,-4307,-594,18485,87,8863,101.5411376953125,0.4779052734375,48.6859130859375,356,3.56,0
82,56615,0.197,159014,197,2,-104,1924,701,-0.05078125,0.939453125,0.34228515625,-8,-40,2,-0.48828125,-2.44140625,0.1220703125,-4670,-4140,1489,12573,533,-21819,69.0655517578125,2.9278564453125,-119.8553466796875,356,3.56,0
83,56616,0.202,159019,202,0,18,1996,-350,0.0087890625,0.974609375,-0.1708984375,-13,21,4,-0.79345703125,1.28173828125,0.244140625,3285,-3470,-5157,17963,186,31330,98.6737060546875,1.021728515625,172.100830078125,348,3.48,0
84,56617,0.203,159020,203,1,-18,1977,-448,-0.0087890625,0.96533203125,-0.21875,16,11,-6,0.9765625,0.67138671875,-0.3662109375,2941,-4293,-579,18485,87,8864,101.5411376953125,0.4779052734375,48.69140625,356,3.56,0
85,56618,0.204,159021,204,2,-104,1927,700,-0.05078125,0.94091796875,0.341796875,-15,-40,0,-0.91552734375,-2.44140625,0.0,-4654,-4134,1460,12573,533,-21819,69.0655517578125,2.9278564453125,-119.8553466796875,356,3.56,0
86,56619,0.209,159026,209,0,20,1993,-351,0.009765625,0.97314453125,-0.17138671875,-6,17,7,-0.3662109375,1.03759765625,0.42724609375,3270,-3492,-5192,17963,186,31331,98.6737060546875,1.021728515625,172.1063232421875,348,3.48,0
87,56620,0.21,159027,210,1,-20,1989,-439,-0.009765625,0.97119140625,-0.21435546875,18,19,-4,1.0986328125,1.15966796875,-0.244140625,2969,-4294,-548,18487,88,8868,101.5521240234375,0.4833984375,48.71337890625,356,3.56,0
88,56621,0.218,159035,218,2,-105,1928,701,-0.05126953125,0.94140625,0.34228515625,-20,-42,-2,-1.220703125,-2.5634765625,-0.1220703125,-4640,-4129,1433,12573,533,-21823,69.0655517578125,2.9278564453125,-119.8773193359375,356,3.56,0
89,56622,0.218,159035,218,0,19,1982,-356,0.00927734375,0.9677734375,-0.173828125,7,15,12,0.42724609375,0.91552734375,0.732421875,3285,-3491,-5151,17964,185,31329,98.67919921875,1.0162353515625,172.0953369140625,348,3.48,0
90,56623,0.219,159036,219,1,-29,1991,-441,-0.01416015625,0.97216796875,-0.21533203125,20,19,-3,1.220703125,1.15966796875,-0.18310546875,2962,-4301,-538,18487,88,8869,101.5521240234375,0.4833984375,48.7188720703125,356,3.56,0
91,56624,0.219,159036,219,2,-104,1929,707,-0.05078125,0.94189453125,0.34521484375,-20,-42,-1,-1.220703125,-2.5634765625,-0.06103515625,-4616,-4119,1388,12577,534,-21821,69.0875244140625,2.933349609375,-119.8663330078125,356,3.56,0
92,56625,0.223,159040,223,0,18,1987,-359,0.0087890625,0.97021484375,-0.17529296875,19,9,17,1.15966796875,0.54931640625,1.03759765625,3297,-3480,-5135,17962,181,31337,98.668212890625,0.9942626953125,172.1392822265625,348,3.48,0
93,56626,0.224,159041,224,1,-35,2008,-444,-0.01708984375,0.98046875,-0.216796875,25,10,3,1.52587890625,0.6103515625,0.18310546875,2975,-4324,-541,18489,87,8871,101.5631103515625,0.4779052734375,48.7298583984375,356,3.56,0
94,56627,0.225,159042,225,2,-103,1928,709,-0.05029296875,0.94140625,0.34619140625,-16,-43,1,-0.9765625,-2.62451171875,0.06103515625,-4606,-4115,1369,12577,534,-21821,69.0875244140625,2.933349609375,-119.8663330078125,356,3.56,0
95,56628,0.23,159047,230,0,18,1987,-359,0.0087890625,0.97021484375,-0.17529296875,19,9,17,1.15966796875,0.54931640625,1.03759765625,3297,-3480,-5135,17962,181,31337,98.668212890625,0.9942626953125,172.1392822265625,348,3.48,0
96,56629,0.231,159048,231,1,-39,2005,-444,-0.01904296875,0.97900390625,-0.216796875,13,11,6,0.79345703125,0.67138671875,0.3662109375,2956,-4327,-528,18489,87,8873,101.5631103515625,0.4779052734375,48.7408447265625,356,3.56,0
97,56630,0.232,159049,232,2,-103,1927,708,-0.05029296875,0.94091796875,0.345703125,-12,-37,2,-0.732421875,-2.25830078125,0.1220703125,-4592,-4104,1342,12577,534,-21817,69.0875244140625,2.933349609375,-119.8443603515625,356,3.56,0
98,56631,0.237,159054,237,0,18,1997,-372,0.0087890625,0.97509765625,-0.181640625,40,-19,30,2.44140625,-1.15966796875,1.8310546875,3283,-3470,-5195,17969,178,31332,98.7066650390625,0.977783203125,172.11181640625,348,3.48,0
99,56632,0.238,159055,238,1,-39,1999,-440,-0.01904296875,0.97607421875,-0.21484375,11,11,7,0.67138671875,0.67138671875,0.42724609375,2943,-4323,-544,18489,86,8874,101.5631103515625,0.472412109375,48.746337890625,356,3.56,0
100,56633,0.239,159056,239,2,-104,1926,706,-0.05078125,0.9404296875,0.3447265625,-15,-39,3,-0.91552734375,-2.38037109375,0.18310546875,-4580,-4096,1357,12579,535,-21816,69.0985107421875,2.9388427734375,-119.8388671875,356,3.56,0
101,56634,0.244,159061,244,0,24,2006,-368,0.01171875,0.9794921875,-0.1796875,43,-32,31,2.62451171875,-1.953125,1.89208984375,3291,-3482,-5206,17967,173,31336,98.6956787109375,0.9503173828125,172.1337890625,348,3.48,0
102,56635,0.245,159062,245,1,-39,1989,-450,-0.01904296875,0.97119140625,-0.2197265625,13,6,8,0.79345703125,0.3662109375,0.48828125,2952,-4309,-503,18490,86,8875,101.568603515625,0.472412109375,48.7518310546875,356,3.56,0
103,56636,0.246,159063,246,2,-103,1924,705,-0.05029296875,0.939453125,0.34423828125,-17,-38,5,-1.03759765625,-2.3193359375,0.30517578125,-4591,-4106,1394,12579,535,-21816,69.0985107421875,2.9388427734375,-119.8388671875,356,3.56,0
104,56637,0.251,159068,251,0,24,2019,-362,0.01171875,0.98583984375,-0.1767578125,36,-57,36,2.197265625,-3.47900390625,2.197265625,3321,-3499,-5143,17971,171,31326,98.7176513671875,0.9393310546875,172.078857421875,348,3.48,0
105,56638,0.252,159069,252,1,-37,1988,-452,-0.01806640625,0.970703125,-0.220703125,16,-3,10,0.9765625,-0.18310546875,0.6103515625,2959,-4300,-473,18490,85,8876,101.568603515625,0.4669189453125,48.75732421875,356,3.56,0
106,56639,0.253,159070,253,2,-103,1922,706,-0.05029296875,0.9384765625,0.3447265625,-17,-35,8,-1.03759765625,-2.13623046875,0.48828125,-4591,-4116,1373,12579,535,-21815,69.0985107421875,2.9388427734375,-119.8333740234375,356,3.56,0
107,56640,0.258,159075,258,0,25,2022,-365,0.01220703125,0.9873046875,-0.17822265625,30,-66,38,1.8310546875,-4.0283203125,2.3193359375,3335,-3496,-5169,17973,170,31323,98.7286376953125,0.933837890625,172.0623779296875,348,3.48,0
108,56641,0.259,159076,259,1,-42,1984,-455,-0.0205078125,0.96875,-0.22216796875,13,-14,8,0.79345703125,-0.8544921875,0.48828125,2964,-4285,-465,18491,85,8875,101.5740966796875,0.4669189453125,48.7518310546875,356,3.56,0
109,56642,0.26,159077,260,2,-103,1922,707,-0.05029296875,0.9384765625,0.34521484375,-16,-37,10,-0.9765625,-2.25830078125,0.6103515625,-4580,-4125,1409,12580,535,-21815,69.10400390625,2.9388427734375,-119.8333740234375,356,3.56,0
110,56643,0.265,159082,265,0,27,2023,-359,0.01318359375,0.98779296875,-0.17529296875,22,-71,36,1.3427734375,-4.33349609375,2.197265625,3321,-3502,-5177,17975,169,31320,98.7396240234375,0.9283447265625,172.0458984375,348,3.48,0
111,56644,0.266,159083,266,1,-36,1980,-455,-0.017578125,0.966796875,-0.22216796875,9,-29,4,0.54931640625,-1.77001953125,0.244140625,2947,-4296,-490,18491,86,8874,101.5740966796875,0.472412109375,48.746337890625,355,3.55,0
112,56645,0.267,159084,267,2,-102,1923,709,-0.0498046875,0.93896484375,0.34619140625,-18,-35,12,-1.0986328125,-2.13623046875,0.732421875,-4609,-4134,1404,12580,535,-21814,69.10400390625,2.9388427734375,-119.827880859375,356,3.56,0
113,56646,0.272,159089,272,0,25,2022,-359,0.01220703125,0.9873046875,-0.17529296875,17,-81,33,1.03759765625,-4.94384765625,2.01416015625,3354,-3546,-5182,17977,167,31307,98.7506103515625,0.9173583984375,171.9744873046875,349,3.49,0
114,56647,0.273,159090,273,1,-32,1977,-456,-0.015625,0.96533203125,-0.22265625,10,-34,-2,0.6103515625,-2.0751953125,-0.1220703125,2945,-4296,-468,18491,86,8873,101.5740966796875,0.472412109375,48.7408447265625,355,3.55,0
115,56648,0.274,159091,274,2,-102,1923,710,-0.0498046875,0.93896484375,0.3466796875,-21,-35,13,-1.28173828125,-2.13623046875,0.79345703125,-4618,-4137,1446,12580,535,-21814,69.10400390625,2.9388427734375,-119.827880859375,356,3.56,0
116,56649,0.282,159099,282,0,24,2025,-351,0.01171875,0.98876953125,-0.17138671875,15,-87,30,0.91552734375,-5.31005859375,1.8310546875,3360,-3544,-5201,17978,166,31303,98.756103515625,0.911865234375,171.9525146484375,349,3.49,0
117,56650,0.282,159099,282,1,-27,1980,-461,-0.01318359375,0.966796875,-0.22509765625,18,-35,-5,1.0986328125,-2.13623046875,-0.30517578125,2946,-4302,-519,18492,88,8871,101.57958984375,0.4833984375,48.7298583984375,355,3.55,0
118,56651,0.282,159099,282,2,-101,1922,712,-0.04931640625,0.9384765625,0.34765625,-23,-33,12,-1.40380859375,-2.01416015625,0.732421875,-4625,-4118,1415,12580,534,-21814,69.10400390625,2.933349609375,-119.827880859375,357,3.57,0
119,56652,0.286,159103,286,0,18,2035,-345,0.0087890625,0.99365234375,-0.16845703125,10,-91,28,0.6103515625,-5.55419921875,1.708984375,3372,-3540,-5232,17980,165,31294,98.76708984375,0.9063720703125,171.903076171875,349,3.49,0
120,56653,0.287,159104,287,1,-24,1979,-466,-0.01171875,0.96630859375,-0.2275390625,18,-31,-8,1.0986328125,-1.89208984375,-0.48828125,2967,-4329,-522,18492,89,8870,101.57958984375,0.4888916015625,48.724365234375,356,3.56,0
121,56654,0.288,159105,288,2,-99,1916,718,-0.04833984375,0.935546875,0.3505859375,-13,-30,10,-0.79345703125,-1.8310546875,0.6103515625,-4609,-4124,1475,12580,534,-21818,69.10400390625,2.933349609375,-119.849853515625,356,3.56,0
122,56655,0.293,159110,293,0,20,2033,-340,0.009765625,0.99267578125,-0.166015625,3,-92,27,0.18310546875,-5.615234375,1.64794921875,3376,-3538,-5246,17980,165,31285,98.76708984375,0.9063720703125,171.8536376953125,350,3.5,0
123,56656,0.294,159111,294,1,-19,1984,-467,-0.00927734375,0.96875,-0.22802734375,12,-28,-12,0.732421875,-1.708984375,-0.732421875,2955,-4321,-536,18493,90,8869,101.5850830078125,0.494384765625,48.7188720703125,356,3.56,0
124,56657,0.295,159112,295,2,-99,1913,719,-0.04833984375,0.93408203125,0.35107421875,-7,-28,10,-0.42724609375,-1.708984375,0.6103515625,-4587,-4175,1452,12580,534,-21818,69.10400390625,2.933349609375,-119.849853515625,356,3.56,0
125,56658,0.3,159117,300,0,18,2032,-335,0.0087890625,0.9921875,-0.16357421875,-2,-87,20,-0.1220703125,-5.31005859375,1.220703125,3402,-3524,-5228,17980,165,31281,98.76708984375,0.9063720703125,171.8316650390625,350,3.5,0
126,56659,0.301,159118,301,1,-8,1981,-468,-0.00390625,0.96728515625,-0.228515625,20,-31,-9,1.220703125,-1.89208984375,-0.54931640625,2928,-4332,-545,18476,97,8888,101.49169921875,0.5328369140625,48.8232421875,356,3.56,0
127,56660,0.302,159119,302,2,-99,1913,716,-0.04833984375,0.93408203125,0.349609375,-4,-28,9,-0.244140625,-1.708984375,0.54931640625,-4570,-4164,1435,12579,533,-21819,69.0985107421875,2.9278564453125,-119.8553466796875,356,3.56,0
128,56661,0.312,159129,312,0,16,2016,-322,0.0078125,0.984375,-0.1572265625,-8,-73,12,-0.48828125,-4.45556640625,0.732421875,3372,-3532,-5198,17976,162,31280,98.7451171875,0.889892578125,171.826171875,350,3.5,0
129,56662,0.312,159129,312,1,0,1986,-468,0.0,0.9697265625,-0.228515625,28,-33,-6,1.708984375,-2.01416015625,-0.3662109375,2920,-4323,-538,18476,97,8888,101.49169921875,0.5328369140625,48.8232421875,356,3.56,0
130,56663,0.312,159129,312,2,-104,1919,708,-0.05078125,0.93701171875,0.345703125,-12,-30,9,-0.732421875,-1.8310546875,0.54931640625,-4529,-4147,1463,12579,533,-21828,69.0985107421875,2.9278564453125,-119.90478515625,356,3.56,0
131,56664,0.314,159131,314,0,20,2010,-319,0.009765625,0.9814453125,-0.15576171875,-8,-64,11,-0.48828125,-3.90625,0.67138671875,3350,-3507,-5172,17976,162,31273,98.7451171875,0.889892578125,171.7877197265625,350,3.5,0
132,56665,0.315,159132,315,1,1,2003,-464,0.00048828125,0.97802734375,-0.2265625,32,-36,-7,1.953125,-2.197265625,-0.42724609375,2946,-4321,-519,18476,97,11699,101.49169921875,0.5328369140625,64.2645263671875,356,3.56,0
133,56666,0.316,159133,316,2,-105,1922,706,-0.05126953125,0.9384765625,0.3447265625,-17,-30,9,-1.03759765625,-1.8310546875,0.54931640625,-4525,-4165,1442,12579,533,-21828,69.0985107421875,2.9278564453125,-119.90478515625,356,3.56,0
134,56667,0.321,159138,321,0,20,2010,-319,0.009765625,0.9814453125,-0.15576171875,-8,-64,11,-0.48828125,-3.90625,0.67138671875,3350,-3507,-5172,17976,162,31273,98.7451171875,0.889892578125,171.7877197265625,350,3.5,0
135,56668,0.322,159139,322,1,-3,2001,-459,-0.00146484375,0.97705078125,-0.22412109375,22,-39,-2,1.3427734375,-2.38037109375,-0.1220703125,2927,-4330,-536,18476,97,11699,101.49169921875,0.5328369140625,64.2645263671875,356,3.56,0
136,56669,0.323,159140,323,2,-107,1923,704,-0.05224609375,0.93896484375,0.34375,-16,-31,8,-0.9765625,-1.89208984375,0.48828125,-4567,-4179,1413,12578,533,-21828,69.093017578125,2.9278564453125,-119.90478515625,356,3.56,0
137,56670,0.328,159145,328,0,20,2000,-325,0.009765625,0.9765625,-0.15869140625,-1,-42,11,-0.06103515625,-2.5634765625,0.67138671875,3334,-3492,-5237,17973,160,31273,98.7286376953125,0.87890625,171.7877197265625,350,3.5,0
138,56671,0.329,159146,329,1,1,1998,-457,0.00048828125,0.9755859375,-0.22314453125,16,-36,-1,0.9765625,-2.197265625,-0.06103515625,2933,-4333,-566,18476,97,11699,101.49169921875,0.5328369140625,64.2645263671875,356,3.56,0
139,56672,0.33,159147,330,2,-107,1923,703,-0.05224609375,0.93896484375,0.34326171875,-14,-28,8,-0.8544921875,-1.708984375,0.48828125,-4569,-4180,1385,12578,533,-21832,69.093017578125,2.9278564453125,-119.9267578125,356,3.56,0
140,56673,0.335,159152,335,0,19,2000,-329,0.00927734375,0.9765625,-0.16064453125,3,-30,12,0.18310546875,-1.8310546875,0.732421875,3314,-3475,-5212,17973,159,31268,98.7286376953125,0.8734130859375,171.76025390625,350,3.5,0
141,56674,0.336,159153,336,1,0,1987,-458,0.0,0.97021484375,-0.2236328125,12,-26,-1,0.732421875,-1.5869140625,-0.06103515625,2948,-4337,-551,18463,89,11686,101.4202880859375,0.4888916015625,64.193115234375,356,3.56,0
142,56675,0.337,159154,337,2,-108,1922,703,-0.052734375,0.9384765625,0.34326171875,-15,-27,9,-0.91552734375,-1.64794921875,0.54931640625,-4571,-4168,1420,12578,533,-21832,69.093017578125,2.9278564453125,-119.9267578125,356,3.56,0
143,56676,0.342,159159,342,0,20,2005,-342,0.009765625,0.97900390625,-0.1669921875,11,-12,14,0.67138671875,-0.732421875,0.8544921875,3312,-3465,-5172,17971,156,31273,98.7176513671875,0.85693359375,171.7877197265625,351,3.51,0
144,56677,0.343,159160,343,1,-2,1984,-457,-0.0009765625,0.96875,-0.22314453125,13,-22,-2,0.79345703125,-1.3427734375,-0.1220703125,2941,-4340,-568,18675,-1,11513,102.5848388671875,-0.0054931640625,63.2427978515625,356,3.56,0
145,56678,0.344,159161,344,2,-110,1921,707,-0.0537109375,0.93798828125,0.34521484375,-19,-25,11,-1.15966796875,-1.52587890625,0.67138671875,-4580,-4139,1451,12578,533,-21832,69.093017578125,2.9278564453125,-119.9267578125,356,3.56,0
146,56679,0.349,159166,349,0,17,2005,-347,0.00830078125,0.97900390625,-0.16943359375,15,-2,15,0.91552734375,-0.1220703125,0.91552734375,3304,-3461,-5103,17973,155,31274,98.7286376953125,0.8514404296875,171.793212890625,351,3.51,0
147,56680,0.35,159167,350,1,4,1980,-460,0.001953125,0.966796875,-0.224609375,21,-17,-2,1.28173828125,-1.03759765625,-0.1220703125,2951,-4350,-598,18674,-3,11501,102.579345703125,-0.0164794921875,63.1768798828125,356,3.56,0
148,56681,0.351,159168,351,2,-111,1920,712,-0.05419921875,0.9375,0.34765625,-17,-22,11,-1.03759765625,-1.3427734375,0.67138671875,-4583,-4151,1413,12578,533,-21837,69.093017578125,2.9278564453125,-119.9542236328125,356,3.56,0
149,56682,0.356,159173,356,0,17,2005,-347,0.00830078125,0.97900390625,-0.16943359375,15,-2,15,0.91552734375,-0.1220703125,0.91552734375,3304,-3461,-5103,17973,155,31274,98.7286376953125,0.8514404296875,171.793212890625,351,3.51,0
150,56683,0.357,159174,357,1,8,1979,-461,0.00390625,0.96630859375,-0.22509765625,25,-13,-4,1.52587890625,-0.79345703125,-0.244140625,2974,-4363,-587,18674,-3,11501,102.579345703125,-0.0164794921875,63.1768798828125,356,3.56,0
151,56684,0.358,159175,358,2,-109,1919,717,-0.05322265625,0.93701171875,0.35009765625,-11,-18,12,-0.67138671875,-1.0986328125,0.732421875,-4588,-4159,1430,12577,534,-21837,69.0875244140625,2.933349609375,-119.9542236328125,356,3.56,0
152,56685,0.363,159180,363,0,14,2024,-361,0.0068359375,0.98828125,-0.17626953125,28,15,17,1.708984375,0.91552734375,1.03759765625,3268,-3451,-5149,17975,151,31279,98.7396240234375,0.8294677734375,171.8206787109375,351,3.51,0
153,56686,0.364,159181,364,1,8,1985,-458,0.00390625,0.96923828125,-0.2236328125,23,-12,-7,1.40380859375,-0.732421875,-0.42724609375,2959,-4352,-573,18725,-17,11454,102.8594970703125,-0.0933837890625,62.918701171875,356,3.56,0
154,56687,0.365,159182,365,2,-107,1920,718,-0.05224609375,0.9375,0.3505859375,-12,-18,11,-0.732421875,-1.0986328125,0.67138671875,-4598,-4154,1440,12577,534,-21837,69.0875244140625,2.933349609375,-119.9542236328125,355,3.55,0
155,56688,0.372,159189,372,0,11,2033,-363,0.00537109375,0.99267578125,-0.17724609375,28,15,15,1.708984375,0.91552734375,0.91552734375,3277,-3466,-5137,17976,150,31280,98.7451171875,0.823974609375,171.826171875,351,3.51,0
156,56689,0.372,159189,372,1,10,1988,-465,0.0048828125,0.970703125,-0.22705078125,24,-5,-10,1.46484375,-0.30517578125,-0.6103515625,2924,-4340,-573,18725,-17,11451,102.8594970703125,-0.0933837890625,62.9022216796875,356,3.56,0
157,56690,0.372,159189,372,2,-104,1921,717,-0.05078125,0.93798828125,0.35009765625,-15,-18,9,-0.91552734375,-1.0986328125,0.54931640625,-4599,-4143,1409,12577,534,-21840,69.0875244140625,2.933349609375,-119.970703125,355,3.55,0
158,56691,0.377,159194,377,0,13,2037,-356,0.00634765625,0.99462890625,-0.173828125,22,11,11,1.3427734375,0.67138671875,0.67138671875,3291,-3469,-5133,17979,149,31278,98.7615966796875,0.8184814453125,171.815185546875,350,3.5,0
159,56692,0.378,159195,378,1,8,1988,-467,0.00390625,0.970703125,-0.22802734375,21,-4,-13,1.28173828125,-0.244140625,-0.79345703125,2913,-4338,-572,18725,-17,11451,102.8594970703125,-0.0933837890625,62.9022216796875,357,3.57,0
160,56693,0.379,159196,379,2,-96,1922,718,-0.046875,0.9384765625,0.3505859375,-17,-13,8,-1.03759765625,-0.79345703125,0.48828125,-4609,-4125,1406,12576,534,-21841,69.08203125,2.933349609375,-119.9761962890625,355,3.55,0
161,56694,0.384,159201,384,0,17,2037,-350,0.00830078125,0.99462890625,-0.1708984375,18,8,5,1.0986328125,0.48828125,0.30517578125,3296,-3479,-5120,17978,147,31285,98.756103515625,0.8074951171875,171.8536376953125,350,3.5,0
162,56695,0.385,159202,385,1,4,1991,-470,0.001953125,0.97216796875,-0.2294921875,14,7,-15,0.8544921875,0.42724609375,-0.91552734375,2937,-4356,-582,18748,-26,11431,102.98583984375,-0.142822265625,62.7923583984375,357,3.57,0
163,56696,0.386,159203,386,2,-94,1922,720,-0.0458984375,0.9384765625,0.3515625,-17,-10,7,-1.03759765625,-0.6103515625,0.42724609375,-4633,-4116,1424,12576,534,-21841,69.08203125,2.933349609375,-119.9761962890625,356,3.56,0
164,56697,0.391,159208,391,0,17,2037,-350,0.00830078125,0.99462890625,-0.1708984375,18,8,5,1.0986328125,0.48828125,0.30517578125,3296,-3479,-5120,17978,147,31285,98.756103515625,0.8074951171875,171.8536376953125,350,3.5,0
165,56698,0.392,159209,392,1,2,1995,-461,0.0009765625,0.97412109375,-0.22509765625,6,16,-12,0.3662109375,0.9765625,-0.732421875,2932,-4342,-578,18748,-26,11415,102.98583984375,-0.142822265625,62.7044677734375,357,3.57,0
166,56699,0.393,159210,393,2,-91,1925,722,-0.04443359375,0.93994140625,0.3525390625,-13,-6,5,-0.79345703125,-0.3662109375,0.30517578125,-4653,-4142,1460,12576,534,-21840,69.08203125,2.933349609375,-119.970703125,356,3.56,0
167,56700,0.398,159215,398,0,19,2034,-336,0.00927734375,0.9931640625,-0.1640625,15,-2,0,0.91552734375,-0.1220703125,0.0,3298,-3471,-5113,17981,147,31282,98.7725830078125,0.8074951171875,171.837158203125,350,3.5,0
168,56701,0.399,159216,399,1,-1,1994,-463,-0.00048828125,0.9736328125,-0.22607421875,7,18,-12,0.42724609375,1.0986328125,-0.732421875,2938,-4332,-562,18748,-26,11415,102.98583984375,-0.142822265625,62.7044677734375,357,3.57,0
169,56702,0.4,159217,400,2,-91,1926,722,-0.04443359375,0.9404296875,0.3525390625,-13,-4,5,-0.79345703125,-0.244140625,0.30517578125,-4627,-4140,1478,12574,533,-21842,69.071044921875,2.9278564453125,-119.981689453125,356,3.56,0
170,56703,0.405,159222,405,0,25,2032,-326,0.01220703125,0.9921875,-0.1591796875,14,-4,-1,0.8544921875,-0.244140625,-0.06103515625,3312,-3473,-5094,17979,145,31288,98.7615966796875,0.7965087890625,171.8701171875,350,3.5,0
171,56704,0.406,159223,406,1,-30,1992,-475,-0.0146484375,0.97265625,-0.23193359375,-8,14,-9,-0.48828125,0.8544921875,-0.54931640625,2942,-4327,-503,18747,-26,11418,102.9803466796875,-0.142822265625,62.720947265625,357,3.57,0
172,56705,0.407,159224,407,2,-90,1926,720,-0.0439453125,0.9404296875,0.3515625,-14,-2,6,-0.8544921875,-0.1220703125,0.3662109375,-4613,-4155,1459,12574,533,-21842,69.071044921875,2.9278564453125,-119.981689453125,357,3.57,0
173,56706,0.412,159229,412,0,32,2030,-317,0.015625,0.9912109375,-0.15478515625,6,-9,-4,0.3662109375,-0.54931640625,-0.244140625,3314,-3460,-5086,17980,146,31284,98.76708984375,0.802001953125,171.84814453125,350,3.5,0
174,56707,0.413,159230,413,1,-23,1982,-458,-0.01123046875,0.9677734375,-0.2236328125,7,14,-8,0.42724609375,0.8544921875,-0.48828125,2926,-4328,-555,18748,-25,11419,102.98583984375,-0.1373291015625,62.7264404296875,357,3.57,0
175,56708,0.414,159231,414,2,-87,1922,718,-0.04248046875,0.9384765625,0.3505859375,-12,0,7,-0.732421875,0.0,0.42724609375,-4606,-4096,1456,12574,533,-21845,69.071044921875,2.9278564453125,-119.9981689453125,357,3.57,0
176,56709,0.419,159236,419,0,34,2023,-317,0.0166015625,0.98779296875,-0.15478515625,0,-11,-4,0.0,-0.67138671875,-0.244140625,3302,-3455,-5103,17981,147,31284,98.7725830078125,0.8074951171875,171.84814453125,350,3.5,0
177,56710,0.42,159237,420,1,-22,1984,-440,-0.0107421875,0.96875,-0.21484375,22,18,-12,1.3427734375,1.0986328125,-0.732421875,2937,-4318,-565,18749,-25,11421,102.9913330078125,-0.1373291015625,62.7374267578125,357,3.57,0
178,56711,0.421,159238,421,2,-85,1920,718,-0.04150390625,0.9375,0.3505859375,-12,2,8,-0.732421875,0.1220703125,0.48828125,-4615,-4092,1394,12572,530,-21847,69.06005859375,2.911376953125,-120.0091552734375,357,3.57,0
179,56712,0.426,159243,426,0,34,2019,-316,0.0166015625,0.98583984375,-0.154296875,-3,-18,-3,-0.18310546875,-1.0986328125,-0.18310546875,3300,-3451,-5113,17978,145,31289,98.756103515625,0.7965087890625,171.8756103515625,350,3.5,0
180,56713,0.427,159244,427,1,-21,1995,-431,-0.01025390625,0.97412109375,-0.21044921875,11,22,-10,0.67138671875,1.3427734375,-0.6103515625,2935,-4315,-519,18750,-24,11424,102.996826171875,-0.1318359375,62.75390625,357,3.57,0
181,56714,0.428,159245,428,2,-88,1917,717,-0.04296875,0.93603515625,0.35009765625,-9,6,11,-0.54931640625,0.3662109375,0.67138671875,-4600,-4085,1357,12572,530,-21845,69.06005859375,2.911376953125,-119.9981689453125,357,3.57,0
182,56715,0.437,159254,437,0,34,2019,-320,0.0166015625,0.98583984375,-0.15625,-5,-31,4,-0.30517578125,-1.89208984375,0.244140625,3291,-3457,-5107,17978,146,31282,98.756103515625,0.802001953125,171.837158203125,350,3.5,0
183,56716,0.437,159254,437,1,-28,1998,-429,-0.013671875,0.9755859375,-0.20947265625,-1,23,-12,-0.06103515625,1.40380859375,-0.732421875,2919,-4332,-539,18749,-24,11425,102.9913330078125,-0.1318359375,62.7593994140625,357,3.57,0
184,56717,0.437,159254,437,2,-91,1916,717,-0.04443359375,0.935546875,0.35009765625,-8,6,13,-0.48828125,0.3662109375,0.79345703125,-4608,-4101,1391,12572,530,-21845,69.06005859375,2.911376953125,-119.9981689453125,357,3.57,0
185,56718,0.44,159257,440,0,36,2020,-324,0.017578125,0.986328125,-0.158203125,-8,-38,2,-0.48828125,-2.3193359375,0.1220703125,3301,-3465,-5106,17978,147,31281,98.756103515625,0.8074951171875,171.8316650390625,350,3.5,0
186,56719,0.441,159258,441,1,-29,1993,-436,-0.01416015625,0.97314453125,-0.212890625,1,11,-14,0.06103515625,0.67138671875,-0.8544921875,2930,-4339,-557,18749,-22,11428,102.9913330078125,-0.120849609375,62.77587890625,357,3.57,0
187,56720,0.442,159259,442,2,-93,1915,717,-0.04541015625,0.93505859375,0.35009765625,-6,7,15,-0.3662109375,0.42724609375,0.91552734375,-4620,-4075,1420,12570,528,-21847,69.049072265625,2.900390625,-120.0091552734375,357,3.57,0
188,56721,0.447,159264,447,0,36,2020,-324,0.017578125,0.986328125,-0.158203125,-8,-38,2,-0.48828125,-2.3193359375,0.1220703125,3301,-3465,-5106,17978,147,31281,98.756103515625,0.8074951171875,171.8316650390625,350,3.5,0
189,56722,0.448,159265,448,1,-23,1991,-440,-0.01123046875,0.97216796875,-0.21484375,6,5,-14,0.3662109375,0.30517578125,-0.8544921875,2944,-4333,-544,18749,-22,11428,102.9913330078125,-0.120849609375,62.77587890625,357,3.57,0
190,56723,0.449,159266,449,2,-97,1915,714,-0.04736328125,0.93505859375,0.3486328125,-6,9,17,-0.3662109375,0.54931640625,1.03759765625,-4634,-4122,1401,12570,528,-21846,69.049072265625,2.900390625,-120.003662109375,357,3.57,0
191,56724,0.454,159271,454,0,35,2015,-341,0.01708984375,0.98388671875,-0.16650390625,-14,-40,7,-0.8544921875,-2.44140625,0.42724609375,3295,-3503,-5119,17974,145,31277,98.734130859375,0.7965087890625,171.8096923828125,350,3.5,0
192,56725,0.465,159282,465,1,-24,1991,-446,-0.01171875,0.97216796875,-0.2177734375,4,2,-11,0.244140625,0.1220703125,-0.67138671875,2944,-4327,-514,18749,-21,11429,102.9913330078125,-0.1153564453125,62.7813720703125,357,3.57,0
193,56726,0.465,159282,465,2,-97,1917,714,-0.04736328125,0.93603515625,0.3486328125,-11,14,18,-0.67138671875,0.8544921875,1.0986328125,-4640,-4156,1422,12568,526,-21847,69.0380859375,2.889404296875,-120.0091552734375,358,3.58,0
194,56727,0.468,159285,468,0,34,2011,-361,0.0166015625,0.98193359375,-0.17626953125,-11,-31,8,-0.67138671875,-1.89208984375,0.48828125,3291,-3494,-5207,17971,143,31279,98.7176513671875,0.7855224609375,171.8206787109375,349,3.49,0
195,56728,0.469,159286,469,1,-13,1982,-451,-0.00634765625,0.9677734375,-0.22021484375,2,-1,-9,0.1220703125,-0.06103515625,-0.54931640625,2956,-4302,-506,18749,-20,11430,102.9913330078125,-0.10986328125,62.786865234375,357,3.57,0
196,56729,0.47,159287,470,2,-96,1918,716,-0.046875,0.9365234375,0.349609375,-8,14,15,-0.48828125,0.8544921875,0.91552734375,-4596,-4154,1400,12568,526,-21846,69.0380859375,2.889404296875,-120.003662109375,358,3.58,0
197,56730,0.475,159292,475,0,28,2013,-368,0.013671875,0.98291015625,-0.1796875,-6,-21,9,-0.3662109375,-1.28173828125,0.54931640625,3286,-3514,-5208,17970,143,31274,98.712158203125,0.7855224609375,171.793212890625,349,3.49,0
198,56731,0.476,159293,476,1,-11,1986,-458,-0.00537109375,0.9697265625,-0.2236328125,9,-4,-7,0.54931640625,-0.244140625,-0.42724609375,2944,-4305,-530,18749,-19,11431,102.9913330078125,-0.1043701171875,62.7923583984375,357,3.57,0
199,56732,0.477,159294,477,2,-95,1919,716,-0.04638671875,0.93701171875,0.349609375,-5,15,14,-0.30517578125,0.91552734375,0.8544921875,-4588,-4165,1442,12568,526,-21846,69.0380859375,2.889404296875,-120.003662109375,358,3.58,0
200,56733,0.482,159299,482,0,28,2013,-368,0.013671875,0.98291015625,-0.1796875,-6,-21,9,-0.3662109375,-1.28173828125,0.54931640625,3286,-3514,-5208,17970,143,31274,98.712158203125,0.7855224609375,171.793212890625,349,3.49,0
201,56734,0.483,159300,483,1,-14,1989,-460,-0.0068359375,0.97119140625,-0.224609375,11,-8,-8,0.67138671875,-0.48828125,-0.48828125,2948,-4287,-531,18750,-18,11431,102.996826171875,-0.098876953125,62.7923583984375,356,3.56,0
202,56735,0.484,159301,484,2,-95,1921,713,-0.04638671875,0.93798828125,0.34814453125,-11,17,12,-0.67138671875,1.03759765625,0.732421875,-4580,-4162,1449,12566,524,-21847,69.027099609375,2.87841796875,-120.0091552734375,358,3.58,0
203,56736,0.489,159306,489,0,18,2004,-380,0.0087890625,0.978515625,-0.185546875,1,4,2,0.06103515625,0.244140625,0.1220703125,3271,-3550,-5201,17969,142,31281,98.7066650390625,0.780029296875,171.8316650390625,348,3.48,0
204,56737,0.49,159307,490,1,-15,1993,-461,-0.00732421875,0.97314453125,-0.22509765625,8,-13,-8,0.48828125,-0.79345703125,-0.48828125,2965,-4292,-545,18750,-17,11430,102.996826171875,-0.0933837890625,62.786865234375,356,3.56,0
205,56738,0.491,159308,491,2,-95,1922,714,-0.04638671875,0.9384765625,0.3486328125,-14,16,11,-0.8544921875,0.9765625,0.67138671875,-4572,-4158,1430,12566,524,-21851,69.027099609375,2.87841796875,-120.0311279296875,358,3.58,0
206,56739,0.496,159313,496,0,13,2003,-384,0.00634765625,0.97802734375,-0.1875,1,7,1,0.06103515625,0.42724609375,0.06103515625,3282,-3540,-5173,17969,142,31277,98.7066650390625,0.780029296875,171.8096923828125,348,3.48,0
207,56740,0.497,159314,497,1,-12,1984,-464,-0.005859375,0.96875,-0.2265625,5,-22,-6,0.30517578125,-1.3427734375,-0.3662109375,2934,-4314,-525,18750,-16,11429,102.996826171875,-0.087890625,62.7813720703125,356,3.56,0
208,56741,0.498,159315,498,2,-94,1923,715,-0.0458984375,0.93896484375,0.34912109375,-12,18,10,-0.732421875,1.0986328125,0.6103515625,-4576,-4147,1409,12566,524,-21851,69.027099609375,2.87841796875,-120.0311279296875,358,3.58,0
209,56742,0.503,159320,503,0,8,2008,-385,0.00390625,0.98046875,-0.18798828125,6,9,3,0.3662109375,0.54931640625,0.18310546875,3291,-3543,-5195,17969,140,31284,98.7066650390625,0.76904296875,171.84814453125,347,3.47,0
210,56743,0.504,159321,504,1,-16,1980,-468,-0.0078125,0.966796875,-0.228515625,6,-21,-8,0.3662109375,-1.28173828125,-0.48828125,2929,-4309,-523,18750,-15,11428,102.996826171875,-0.0823974609375,62.77587890625,356,3.56,0
211,56744,0.505,159322,505,2,-96,1926,715,-0.046875,0.9404296875,0.34912109375,-9,18,9,-0.54931640625,1.0986328125,0.54931640625,-4586,-4153,1438,12565,522,-21852,69.0216064453125,2.867431640625,-120.03662109375,358,3.58,0
212,56745,0.51,159327,510,0,9,2008,-382,0.00439453125,0.98046875,-0.1865234375,11,12,2,0.67138671875,0.732421875,0.1220703125,3299,-3526,-5189,17970,140,31286,98.712158203125,0.76904296875,171.859130859375,347,3.47,0
213,56746,0.511,159328,511,1,-27,1979,-468,-0.01318359375,0.96630859375,-0.228515625,14,-22,-8,0.8544921875,-1.3427734375,-0.48828125,2911,-4322,-521,18751,-14,11427,103.0023193359375,-0.076904296875,62.7703857421875,355,3.55,0
214,56747,0.512,159329,512,2,-99,1929,712,-0.04833984375,0.94189453125,0.34765625,-14,16,10,-0.8544921875,0.9765625,0.6103515625,-4598,-4141,1432,12565,522,-21855,69.0216064453125,2.867431640625,-120.0531005859375,358,3.58,0
215,56748,0.517,159334,517,0,9,2008,-382,0.00439453125,0.98046875,-0.1865234375,11,12,2,0.67138671875,0.732421875,0.1220703125,3299,-3526,-5189,17970,140,31286,98.712158203125,0.76904296875,171.859130859375,347,3.47,0
216,56749,0.525,159342,525,1,-30,1979,-468,-0.0146484375,0.96630859375,-0.228515625,9,-24,-9,0.54931640625,-1.46484375,-0.54931640625,2908,-4313,-526,18751,-13,11426,103.0023193359375,-0.0714111328125,62.764892578125,355,3.55,0
217,56750,0.525,159342,525,2,-102,1931,708,-0.0498046875,0.94287109375,0.345703125,-25,15,9,-1.52587890625,0.91552734375,0.54931640625,-4608,-4119,1452,12565,521,-21855,69.0216064453125,2.8619384765625,-120.0531005859375,358,3.58,0
218,56751,0.525,159342,525,0,7,2013,-378,0.00341796875,0.98291015625,-0.1845703125,15,22,-1,0.91552734375,1.3427734375,-0.06103515625,3314,-3503,-5218,17971,138,31291,98.7176513671875,0.758056640625,171.8865966796875,347,3.47,0
219,56752,0.525,159342,525,1,-33,1976,-462,-0.01611328125,0.96484375,-0.2255859375,6,-24,-10,0.3662109375,-1.46484375,-0.6103515625,2905,-4293,-518,18751,-12,11425,103.0023193359375,-0.06591796875,62.7593994140625,355,3.55,0
220,56753,0.526,159343,526,2,-102,1931,708,-0.0498046875,0.94287109375,0.345703125,-27,12,10,-1.64794921875,0.732421875,0.6103515625,-4596,-4129,1498,12565,521,-21855,69.0216064453125,2.8619384765625,-120.0531005859375,358,3.58,0
221,56754,0.531,159348,531,0,5,2012,-372,0.00244140625,0.982421875,-0.181640625,14,18,-2,0.8544921875,1.0986328125,-0.1220703125,3326,-3496,-5212,17972,139,31293,98.72314453125,0.7635498046875,171.8975830078125,346,3.46,0
222,56755,0.532,159349,532,1,-42,1977,-465,-0.0205078125,0.96533203125,-0.22705078125,11,-24,-13,0.67138671875,-1.46484375,-0.79345703125,2934,-4292,-489,18752,-11,11446,103.0078125,-0.0604248046875,62.874755859375,355,3.55,0
223,56756,0.533,159350,533,2,-101,1929,708,-0.04931640625,0.94189453125,0.345703125,-26,10,9,-1.5869140625,0.6103515625,0.54931640625,-4600,-4128,1491,12565,521,-21860,69.0216064453125,2.8619384765625,-120.08056640625,358,3.58,0
224,56757,0.538,159355,538,0,9,2008,-366,0.00439453125,0.98046875,-0.1787109375,9,6,-4,0.54931640625,0.3662109375,-0.244140625,3330,-3495,-5212,17973,139,31290,98.7286376953125,0.7635498046875,171.881103515625,346,3.46,0
225,56758,0.539,159356,539,1,-43,1975,-467,-0.02099609375,0.96435546875,-0.22802734375,12,-24,-12,0.732421875,-1.46484375,-0.732421875,2947,-4292,-477,18752,-11,11446,103.0078125,-0.0604248046875,62.874755859375,355,3.55,0
226,56759,0.54,159357,540,2,-93,1924,707,-0.04541015625,0.939453125,0.34521484375,-25,10,6,-1.52587890625,0.6103515625,0.3662109375,-4612,-4161,1497,12565,520,-21860,69.0216064453125,2.8564453125,-120.08056640625,358,3.58,0
227,56760,0.545,159362,545,0,8,2003,-364,0.00390625,0.97802734375,-0.177734375,7,-1,-2,0.42724609375,-0.06103515625,-0.1220703125,3350,-3501,-5215,17972,138,31295,98.72314453125,0.758056640625,171.9085693359375,346,3.46,0
228,56761,0.546,159363,546,1,-40,1979,-465,-0.01953125,0.96630859375,-0.22705078125,12,-26,-14,0.732421875,-1.5869140625,-0.8544921875,2958,-4292,-465,18739,84,11408,102.9364013671875,0.46142578125,62.666015625,355,3.55,0
229,56762,0.547,159364,547,2,-88,1920,705,-0.04296875,0.9375,0.34423828125,-27,9,7,-1.64794921875,0.54931640625,0.42724609375,-4600,-4176,1484,12565,520,-21860,69.0216064453125,2.8564453125,-120.08056640625,358,3.58,0
230,56763,0.552,159369,552,0,8,1998,-358,0.00390625,0.9755859375,-0.1748046875,7,-6,0,0.42724609375,-0.3662109375,0.0,3339,-3494,-5216,17973,138,31296,98.7286376953125,0.758056640625,171.9140625,346,3.46,0
231,56764,0.553,159370,553,1,-45,1983,-467,-0.02197265625,0.96826171875,-0.22802734375,13,-19,-18,0.79345703125,-1.15966796875,-1.0986328125,2978,-4287,-459,18739,84,11445,102.9364013671875,0.46142578125,62.8692626953125,354,3.54,0
232,56765,0.554,159371,554,2,-81,1912,705,-0.03955078125,0.93359375,0.34423828125,-24,12,6,-1.46484375,0.732421875,0.3662109375,-4596,-4153,1435,12565,520,-21865,69.0216064453125,2.8564453125,-120.1080322265625,358,3.58,0
233,56766,0.559,159376,559,0,7,1989,-350,0.00341796875,0.97119140625,-0.1708984375,9,-17,4,0.54931640625,-1.03759765625,0.244140625,3311,-3480,-5184,17974,139,31291,98.734130859375,0.7635498046875,171.8865966796875,346,3.46,0
234,56767,0.56,159377,560,1,-44,1984,-471,-0.021484375,0.96875,-0.22998046875,8,-17,-16,0.48828125,-1.03759765625,-0.9765625,2982,-4307,-483,18739,84,11445,102.9364013671875,0.46142578125,62.8692626953125,354,3.54,0
235,56768,0.561,159378,561,2,-80,1909,706,-0.0390625,0.93212890625,0.3447265625,-22,12,6,-1.3427734375,0.732421875,0.3662109375,-4576,-4164,1449,12565,518,-21865,69.0216064453125,2.845458984375,-120.1080322265625,358,3.58,0
236,56769,0.566,159383,566,0,7,1992,-351,0.00341796875,0.97265625,-0.17138671875,11,-19,8,0.67138671875,-1.15966796875,0.48828125,3299,-3474,-5189,17973,137,31295,98.7286376953125,0.7525634765625,171.9085693359375,346,3.46,0
237,56770,0.567,159384,567,1,-37,1981,-468,-0.01806640625,0.96728515625,-0.228515625,13,-10,-12,0.79345703125,-0.6103515625,-0.732421875,2955,-4311,-477,18743,94,11435,102.9583740234375,0.516357421875,62.8143310546875,354,3.54,0
238,56771,0.568,159385,568,2,-82,1907,707,-0.0400390625,0.93115234375,0.34521484375,-22,9,7,-1.3427734375,0.54931640625,0.42724609375,-4578,-4178,1399,12565,518,-21865,69.0216064453125,2.845458984375,-120.1080322265625,358,3.58,0
239,56772,0.573,159390,573,0,11,1995,-348,0.00537109375,0.97412109375,-0.169921875,18,-30,12,1.0986328125,-1.8310546875,0.732421875,3296,-3481,-5168,17976,137,31288,98.7451171875,0.7525634765625,171.8701171875,347,3.47,0
240,56773,0.574,159391,574,1,-31,1982,-468,-0.01513671875,0.9677734375,-0.228515625,19,-8,-12,1.15966796875,-0.48828125,-0.732421875,2941,-4333,-501,18743,94,11458,102.9583740234375,0.516357421875,62.940673828125,354,3.54,0
241,56774,0.575,159392,575,2,-89,1908,709,-0.04345703125,0.931640625,0.34619140625,-23,3,9,-1.40380859375,0.18310546875,0.54931640625,-4548,-4211,1430,12565,518,-21866,69.0216064453125,2.845458984375,-120.113525390625,358,3.58,0
242,56775,0.58,159397,580,0,8,2000,-345,0.00390625,0.9765625,-0.16845703125,21,-31,13,1.28173828125,-1.89208984375,0.79345703125,3280,-3493,-5138,17977,136,31287,98.7506103515625,0.7470703125,171.8646240234375,347,3.47,0
243,56776,0.581,159398,581,1,-30,1982,-466,-0.0146484375,0.9677734375,-0.2275390625,23,-3,-10,1.40380859375,-0.18310546875,-0.6103515625,2948,-4315,-517,18743,94,11458,102.9583740234375,0.516357421875,62.940673828125,354,3.54,0
244,56777,0.589,159406,589,2,-93,1909,710,-0.04541015625,0.93212890625,0.3466796875,-23,-2,10,-1.40380859375,-0.1220703125,0.6103515625,-4548,-4198,1446,12565,516,-21866,69.0216064453125,2.83447265625,-120.113525390625,358,3.58,0
245,56778,0.589,159406,589,0,6,2003,-343,0.0029296875,0.97802734375,-0.16748046875,15,-34,16,0.91552734375,-2.0751953125,0.9765625,3296,-3496,-5182,17977,134,31291,98.7506103515625,0.736083984375,171.8865966796875,347,3.47,0
246,56779,0.59,159407,590,1,-31,1990,-471,-0.01513671875,0.9716796875,-0.22998046875,16,9,-11,0.9765625,0.54931640625,-0.67138671875,2955,-4324,-503,18746,99,11451,102.974853515625,0.5438232421875,62.9022216796875,354,3.54,0
247,56780,0.59,159407,590,2,-95,1909,711,-0.04638671875,0.93212890625,0.34716796875,-21,-7,11,-1.28173828125,-0.42724609375,0.67138671875,-4548,-4200,1438,12565,516,-21866,69.0216064453125,2.83447265625,-120.113525390625,358,3.58,0
248,56781,0.594,159411,594,0,-3,2003,-339,-0.00146484375,0.97802734375,-0.16552734375,16,-25,16,0.9765625,-1.52587890625,0.9765625,3313,-3465,-5198,17979,133,31284,98.7615966796875,0.7305908203125,171.84814453125,347,3.47,0
249,56782,0.595,159412,595,1,-35,1990,-475,-0.01708984375,0.9716796875,-0.23193359375,13,11,-7,0.79345703125,0.67138671875,-0.42724609375,2970,-4323,-529,18746,99,11461,102.974853515625,0.5438232421875,62.9571533203125,354,3.54,0
250,56783,0.596,159413,596,2,-95,1908,712,-0.04638671875,0.931640625,0.34765625,-20,-14,11,-1.220703125,-0.8544921875,0.67138671875,-4562,-4212,1438,12565,516,-21870,69.0216064453125,2.83447265625,-120.135498046875,358,3.58,0
251,56784,0.601,159418,601,0,-4,2010,-342,-0.001953125,0.9814453125,-0.1669921875,14,-23,21,0.8544921875,-1.40380859375,1.28173828125,3321,-3486,-5206,17980,133,31284,98.76708984375,0.7305908203125,171.84814453125,347,3.47,0
252,56785,0.602,159419,602,1,-48,1992,-475,-0.0234375,0.97265625,-0.23193359375,9,5,-6,0.54931640625,0.30517578125,-0.3662109375,2974,-4322,-537,18751,106,11452,103.0023193359375,0.582275390625,62.90771484375,354,3.54,0
253,56786,0.603,159420,603,2,-95,1908,712,-0.04638671875,0.931640625,0.34765625,-20,-18,11,-1.220703125,-1.0986328125,0.67138671875,-4589,-4190,1465,12564,515,-21870,69.01611328125,2.8289794921875,-120.135498046875,358,3.58,0
254,56787,0.608,159425,608,0,-4,2010,-342,-0.001953125,0.9814453125,-0.1669921875,14,-23,21,0.8544921875,-1.40380859375,1.28173828125,3321,-3486,-5206,17980,133,31284,98.76708984375,0.7305908203125,171.84814453125,347,3.47,0
255,56788,0.609,159426,609,1,-52,1994,-479,-0.025390625,0.9736328125,-0.23388671875,1,-2,-5,0.06103515625,-0.1220703125,-0.30517578125,2954,-4317,-495,18751,106,11452,103.0023193359375,0.582275390625,62.90771484375,354,3.54,0
256,56789,0.618,159435,618,2,-97,1903,716,-0.04736328125,0.92919921875,0.349609375,-15,-28,8,-0.91552734375,-1.708984375,0.48828125,-4614,-4173,1460,12564,515,-21873,69.01611328125,2.8289794921875,-120.1519775390625,358,3.58,0
257,56790,0.622,159439,622,0,-37,2017,-355,-0.01806640625,0.98486328125,-0.17333984375,17,-24,32,1.03759765625,-1.46484375,1.953125,3327,-3501,-5234,17983,127,31281,98.7835693359375,0.6976318359375,171.8316650390625,348,3.48,0
258,56791,0.623,159440,623,1,-60,1986,-473,-0.029296875,0.9697265625,-0.23095703125,-4,-3,3,-0.244140625,-0.18310546875,0.18310546875,2940,-4305,-530,18755,115,11452,103.0242919921875,0.6317138671875,62.90771484375,354,3.54,0
259,56792,0.624,159441,624,2,-98,1898,721,-0.0478515625,0.9267578125,0.35205078125,-16,-38,3,-0.9765625,-2.3193359375,0.18310546875,-4629,-4134,1439,12563,514,-21874,69.0106201171875,2.823486328125,-120.157470703125,358,3.58,0
260,56793,0.629,159446,629,0,-49,2021,-358,-0.02392578125,0.98681640625,-0.1748046875,15,-33,32,0.91552734375,-2.01416015625,1.953125,3334,-3506,-5242,17984,123,31282,98.7890625,0.6756591796875,171.837158203125,348,3.48,0
261,56794,0.63,159447,630,1,-62,1985,-469,-0.0302734375,0.96923828125,-0.22900390625,2,-3,4,0.1220703125,-0.18310546875,0.244140625,2939,-4306,-525,18755,115,11452,103.0242919921875,0.6317138671875,62.90771484375,354,3.54,0
262,56795,0.631,159448,631,2,-96,1893,728,-0.046875,0.92431640625,0.35546875,-10,-48,1,-0.6103515625,-2.9296875,0.06103515625,-4593,-4131,1478,12563,514,-21876,69.0106201171875,2.823486328125,-120.16845703125,358,3.58,0
263,56796,0.636,159453,636,0,-56,2022,-357,-0.02734375,0.9873046875,-0.17431640625,16,-41,35,0.9765625,-2.50244140625,2.13623046875,3342,-3514,-5248,17985,121,31276,98.7945556640625,0.6646728515625,171.80419921875,348,3.48,0
264,56797,0.637,159454,637,1,-73,1994,-463,-0.03564453125,0.9736328125,-0.22607421875,3,-11,5,0.18310546875,-0.67138671875,0.30517578125,2973,-4357,-532,18755,115,11451,103.0242919921875,0.6317138671875,62.9022216796875,354,3.54,0
265,56798,0.638,159455,638,2,-97,1893,732,-0.04736328125,0.92431640625,0.357421875,-8,-54,-1,-0.48828125,-3.2958984375,-0.06103515625,-4596,-4127,1488,12563,514,-21876,69.0106201171875,2.823486328125,-120.16845703125,358,3.58,0
266,56799,0.643,159460,643,0,-56,2022,-357,-0.02734375,0.9873046875,-0.17431640625,16,-41,35,0.9765625,-2.50244140625,2.13623046875,3342,-3514,-5248,17985,121,31276,98.7945556640625,0.6646728515625,171.80419921875,348,3.48,0
267,56800,0.644,159461,644,1,-75,1996,-461,-0.03662109375,0.974609375,-0.22509765625,-2,-18,5,-0.1220703125,-1.0986328125,0.30517578125,2965,-4335,-574,18758,127,11441,103.040771484375,0.6976318359375,62.8472900390625,354,3.54,0
268,56801,0.645,159462,645,2,-96,1894,738,-0.046875,0.9248046875,0.3603515625,-3,-66,-2,-0.18310546875,-4.0283203125,-0.1220703125,-4583,-4163,1471,12560,513,-21877,68.994140625,2.8179931640625,-120.1739501953125,358,3.58,0
269,56802,0.65,159467,650,0,-75,2027,-349,-0.03662109375,0.98974609375,-0.17041015625,0,-69,28,0.0,-4.21142578125,1.708984375,3282,-3544,-5171,17985,118,31271,98.7945556640625,0.648193359375,171.7767333984375,348,3.48,0
270,56803,0.651,159468,651,1,-79,1996,-460,-0.03857421875,0.974609375,-0.224609375,-1,-22,6,-0.06103515625,-1.3427734375,0.3662109375,2947,-4331,-576,18758,127,11441,103.040771484375,0.6976318359375,62.8472900390625,354,3.54,0
271,56804,0.652,159469,652,2,-96,1896,739,-0.046875,0.92578125,0.36083984375,1,-73,-4,0.06103515625,-4.45556640625,-0.244140625,-4593,-4171,1482,12560,513,-21880,68.994140625,2.8179931640625,-120.1904296875,358,3.58,0
272,56805,0.657,159474,657,0,-76,2016,-344,-0.037109375,0.984375,-0.16796875,-6,-74,24,-0.3662109375,-4.5166015625,1.46484375,3297,-3544,-5179,17984,117,31263,98.7890625,0.6427001953125,171.7327880859375,348,3.48,0
273,56806,0.658,159475,658,1,-88,1992,-458,-0.04296875,0.97265625,-0.2236328125,-6,-38,13,-0.3662109375,-2.3193359375,0.79345703125,2941,-4305,-627,18757,127,11438,103.0352783203125,0.6976318359375,62.830810546875,354,3.54,0
274,56807,0.659,159476,659,2,-96,1897,739,-0.046875,0.92626953125,0.36083984375,3,-80,-5,0.18310546875,-4.8828125,-0.30517578125,-4559,-4181,1453,12561,513,-21883,68.9996337890625,2.8179931640625,-120.2069091796875,358,3.58,0
275,56808,0.664,159481,664,0,-78,2003,-341,-0.0380859375,0.97802734375,-0.16650390625,-11,-90,18,-0.67138671875,-5.4931640625,1.0986328125,3306,-3531,-5173,17983,118,31254,98.7835693359375,0.648193359375,171.683349609375,348,3.48,0
276,56809,0.665,159482,665,1,-89,1991,-461,-0.04345703125,0.97216796875,-0.22509765625,-6,-44,16,-0.3662109375,-2.685546875,0.9765625,2947,-4303,-604,18757,126,11436,103.0352783203125,0.692138671875,62.81982421875,354,3.54,0
277,56810,0.666,159483,666,2,-98,1901,737,-0.0478515625,0.92822265625,0.35986328125,3,-88,-8,0.18310546875,-5.37109375,-0.48828125,-4528,-4221,1414,12561,511,-21893,68.9996337890625,2.8070068359375,-120.2618408203125,358,3.58,0
278,56811,0.671,159488,671,0,-73,1999,-345,-0.03564453125,0.97607421875,-0.16845703125,-11,-96,13,-0.67138671875,-5.859375,0.79345703125,3316,-3541,-5186,17983,118,31249,98.7835693359375,0.648193359375,171.6558837890625,348,3.48,0
279,56812,0.672,159489,672,1,-89,1989,-460,-0.04345703125,0.97119140625,-0.224609375,-3,-52,18,-0.18310546875,-3.173828125,1.0986328125,2948,-4302,-592,18756,126,11433,103.02978515625,0.692138671875,62.8033447265625,354,3.54,0
280,56813,0.68,159497,680,2,-101,1904,734,-0.04931640625,0.9296875,0.3583984375,-5,-100,-6,-0.30517578125,-6.103515625,-0.3662109375,-4527,-4249,1403,12560,510,-21898,68.994140625,2.801513671875,-120.289306640625,358,3.58,0
281,56814,0.68,159497,680,0,-71,1997,-345,-0.03466796875,0.97509765625,-0.16845703125,-11,-103,14,-0.67138671875,-6.28662109375,0.8544921875,3323,-3552,-5176,17983,119,31240,98.7835693359375,0.6536865234375,171.6064453125,349,3.49,0
282,56815,0.68,159497,680,1,-88,1986,-453,-0.04296875,0.9697265625,-0.22119140625,-6,-58,19,-0.3662109375,-3.5400390625,1.15966796875,2926,-4311,-579,18755,125,11427,103.0242919921875,0.6866455078125,62.7703857421875,354,3.54,0
283,56816,0.68,159497,680,2,-100,1894,734,-0.048828125,0.9248046875,0.3583984375,11,-93,-9,0.67138671875,-5.67626953125,-0.54931640625,-4516,-4200,1415,12561,508,-21909,68.9996337890625,2.79052734375,-120.3497314453125,358,3.58,0
284,56817,0.685,159502,685,0,-56,1991,-345,-0.02734375,0.97216796875,-0.16845703125,-10,-102,8,-0.6103515625,-6.2255859375,0.48828125,3325,-3550,-5146,17982,120,31230,98.778076171875,0.6591796875,171.551513671875,349,3.49,0
285,56818,0.686,159503,686,1,-84,1984,-455,-0.041015625,0.96875,-0.22216796875,-5,-60,21,-0.30517578125,-3.662109375,1.28173828125,2923,-4306,-575,18754,125,11423,103.018798828125,0.6866455078125,62.7484130859375,354,3.54,0
286,56819,0.687,159504,687,2,-104,1897,734,-0.05078125,0.92626953125,0.3583984375,23,-101,-8,1.40380859375,-6.16455078125,-0.48828125,-4537,-4179,1435,12562,507,-21915,69.005126953125,2.7850341796875,-120.3826904296875,358,3.58,0
287,56820,0.692,159509,692,0,-50,1990,-347,-0.0244140625,0.9716796875,-0.16943359375,-8,-92,6,-0.48828125,-5.615234375,0.3662109375,3321,-3527,-5110,17982,121,31226,98.778076171875,0.6646728515625,171.529541015625,349,3.49,0
288,56821,0.693,159510,693,1,-80,1983,-460,-0.0390625,0.96826171875,-0.224609375,-4,-72,23,-0.244140625,-4.39453125,1.40380859375,2925,-4307,-577,18753,124,11416,103.0133056640625,0.68115234375,62.7099609375,354,3.54,0
289,56822,0.694,159511,694,2,-105,1903,729,-0.05126953125,0.92919921875,0.35595703125,21,-114,-5,1.28173828125,-6.9580078125,-0.30517578125,-4557,-4172,1420,12563,506,-21921,69.0106201171875,2.779541015625,-120.4156494140625,358,3.58,0
290,56823,0.699,159516,699,0,-31,1989,-353,-0.01513671875,0.97119140625,-0.17236328125,-4,-69,11,-0.244140625,-4.21142578125,0.67138671875,3309,-3531,-5117,17982,121,31215,98.778076171875,0.6646728515625,171.4691162109375,349,3.49,0
291,56824,0.7,159517,700,1,-82,1982,-462,-0.0400390625,0.9677734375,-0.2255859375,-4,-73,21,-0.244140625,-4.45556640625,1.28173828125,2904,-4314,-534,18753,124,11412,103.0133056640625,0.68115234375,62.68798828125,354,3.54,0
292,56825,0.706,159523,706,0,-25,1994,-364,-0.01220703125,0.9736328125,-0.177734375,-2,-56,11,-0.1220703125,-3.41796875,0.67138671875,3300,-3508,-5141,17981,120,31217,98.7725830078125,0.6591796875,171.4801025390625,349,3.49,0
293,56826,0.707,159524,707,1,-79,1982,-464,-0.03857421875,0.9677734375,-0.2265625,-4,-78,22,-0.244140625,-4.7607421875,1.3427734375,2894,-4306,-534,18752,124,11408,103.0078125,0.68115234375,62.666015625,354,3.54,0
294,56827,0.708,159525,708,2,-97,1919,712,-0.04736328125,0.93701171875,0.34765625,-5,-104,-4,-0.30517578125,-6.34765625,-0.244140625,-4602,-4184,1468,12563,502,-21938,69.0106201171875,2.757568359375,-120.509033203125,357,3.57,0
295,56828,0.713,159530,713,0,-18,2000,-374,-0.0087890625,0.9765625,-0.1826171875,-2,-48,13,-0.1220703125,-2.9296875,0.79345703125,3308,-3517,-5217,17981,120,31215,98.7725830078125,0.6591796875,171.4691162109375,349,3.49,0
296,56829,0.714,159531,714,1,-72,1978,-464,-0.03515625,0.9658203125,-0.2265625,1,-87,18,0.06103515625,-5.31005859375,1.0986328125,2882,-4282,-580,18752,124,11399,103.0078125,0.68115234375,62.6165771484375,355,3.55,0
297,56830,0.715,159532,715,2,-91,1926,712,-0.04443359375,0.9404296875,0.34765625,-8,-107,-2,-0.48828125,-6.53076171875,-0.1220703125,-4595,-4174,1445,12562,499,-21949,69.005126953125,2.7410888671875,-120.5694580078125,357,3.57,0
298,56831,0.72,159537,720,0,-3,2009,-388,-0.00146484375,0.98095703125,-0.189453125,1,-34,14,0.06103515625,-2.0751953125,0.8544921875,3295,-3521,-5183,17981,120,31208,98.7725830078125,0.6591796875,171.4306640625,349,3.49,0
299,56832,0.721,159538,721,1,-67,1982,-468,-0.03271484375,0.9677734375,-0.228515625,5,-94,17,0.30517578125,-5.7373046875,1.03759765625,2890,-4289,-577,18752,125,11394,103.0078125,0.6866455078125,62.589111328125,355,3.55,0
300,56833,0.722,159539,722,2,-87,1928,712,-0.04248046875,0.94140625,0.34765625,-5,-103,0,-0.30517578125,-6.28662109375,0.0,-4578,-4187,1431,12562,498,-21955,69.005126953125,2.735595703125,-120.6024169921875,357,3.57,0
301,56834,0.727,159544,727,0,8,2014,-397,0.00390625,0.9833984375,-0.19384765625,2,-27,14,0.1220703125,-1.64794921875,0.8544921875,3287,-3516,-5169,17980,118,31211,98.76708984375,0.648193359375,171.4471435546875,349,3.49,0
302,56835,0.728,159545,728,1,-42,1993,-471,-0.0205078125,0.97314453125,-0.22998046875,16,-93,9,0.9765625,-5.67626953125,0.54931640625,2916,-4288,-555,18753,126,11384,103.0133056640625,0.692138671875,62.5341796875,355,3.55,0
303,56836,0.729,159546,729,2,-83,1931,711,-0.04052734375,0.94287109375,0.34716796875,-8,-104,2,-0.48828125,-6.34765625,0.1220703125,-4573,-4166,1441,12561,496,-21960,68.9996337890625,2.724609375,-120.6298828125,357,3.57,0
304,56837,0.734,159551,734,0,25,2017,-405,0.01220703125,0.98486328125,-0.19775390625,2,-35,11,0.1220703125,-2.13623046875,0.67138671875,3251,-3510,-5183,17981,118,31204,98.7725830078125,0.648193359375,171.40869140625,349,3.49,0
305,56838,0.735,159552,735,1,-31,1998,-473,-0.01513671875,0.9755859375,-0.23095703125,9,-93,7,0.54931640625,-5.67626953125,0.42724609375,2902,-4276,-577,18753,127,11380,103.0133056640625,0.6976318359375,62.51220703125,355,3.55,0
306,56839,0.736,159553,736,2,-77,1933,712,-0.03759765625,0.94384765625,0.34765625,-14,-100,5,-0.8544921875,-6.103515625,0.30517578125,-4536,-4181,1419,12559,493,-21971,68.9886474609375,2.7081298828125,-120.6903076171875,357,3.57,0
307,56840,0.745,159562,745,0,38,2018,-403,0.0185546875,0.9853515625,-0.19677734375,3,-42,9,0.18310546875,-2.5634765625,0.54931640625,3256,-3501,-5217,17982,118,31202,98.778076171875,0.648193359375,171.397705078125,349,3.49,0
308,56841,0.745,159562,745,1,-20,1997,-472,-0.009765625,0.97509765625,-0.23046875,4,-84,3,0.244140625,-5.126953125,0.18310546875,2901,-4278,-555,18753,128,11376,103.0133056640625,0.703125,62.490234375,355,3.55,0
309,56842,0.745,159562,745,2,-76,1933,714,-0.037109375,0.94384765625,0.3486328125,-14,-96,7,-0.8544921875,-5.859375,0.42724609375,-4542,-4171,1427,12559,491,-21976,68.9886474609375,2.6971435546875,-120.7177734375,357,3.57,0
310,56843,0.748,159565,748,0,48,2016,-402,0.0234375,0.984375,-0.1962890625,0,-56,6,0.0,-3.41796875,0.3662109375,3266,-3506,-5223,17981,117,31204,98.7725830078125,0.6427001953125,171.40869140625,349,3.49,0
311,56844,0.749,159566,749,1,3,1984,-475,0.00146484375,0.96875,-0.23193359375,-8,-70,3,-0.48828125,-4.2724609375,0.18310546875,2883,-4263,-532,18751,129,11369,103.0023193359375,0.7086181640625,62.4517822265625,355,3.55,0
312,56845,0.75,159567,750,2,-76,1933,717,-0.037109375,0.94384765625,0.35009765625,-12,-96,9,-0.732421875,-5.859375,0.54931640625,-4553,-4200,1403,12558,489,-21981,68.983154296875,2.6861572265625,-120.7452392578125,357,3.57,0
313,56846,0.755,159572,755,0,59,2008,-390,0.02880859375,0.98046875,-0.1904296875,-1,-78,6,-0.06103515625,-4.7607421875,0.3662109375,3238,-3492,-5144,17981,118,31192,98.7725830078125,0.648193359375,171.3427734375,349,3.49,0
314,56847,0.756,159573,756,1,15,1977,-474,0.00732421875,0.96533203125,-0.2314453125,-7,-57,4,-0.42724609375,-3.47900390625,0.244140625,2905,-4271,-540,18751,130,11366,103.0023193359375,0.714111328125,62.435302734375,355,3.55,0
315,56848,0.757,159574,757,2,-79,1932,721,-0.03857421875,0.943359375,0.35205078125,-9,-91,12,-0.54931640625,-5.55419921875,0.732421875,-4542,-4226,1395,12557,486,-21990,68.9776611328125,2.669677734375,-120.794677734375,357,3.57,0
316,56849,0.762,159579,762,0,62,2010,-383,0.0302734375,0.9814453125,-0.18701171875,-2,-85,7,-0.1220703125,-5.18798828125,0.42724609375,3226,-3487,-5111,17981,119,31188,98.7725830078125,0.6536865234375,171.32080078125,349,3.49,0
317,56850,0.763,159580,763,1,30,1971,-469,0.0146484375,0.96240234375,-0.22900390625,0,-48,5,0.0,-2.9296875,0.30517578125,2911,-4284,-528,18750,131,11361,102.996826171875,0.7196044921875,62.4078369140625,355,3.55,0
318,56851,0.764,159581,764,2,-82,1932,720,-0.0400390625,0.943359375,0.3515625,-6,-89,13,-0.3662109375,-5.43212890625,0.79345703125,-4541,-4223,1395,12557,484,-21994,68.9776611328125,2.65869140625,-120.816650390625,357,3.57,0
319,56852,0.769,159586,769,0,62,2010,-383,0.0302734375,0.9814453125,-0.18701171875,-2,-85,7,-0.1220703125,-5.18798828125,0.42724609375,3226,-3487,-5111,17981,119,31188,98.7725830078125,0.6536865234375,171.32080078125,349,3.49,0
320,56853,0.78,159597,780,1,34,1972,-461,0.0166015625,0.962890625,-0.22509765625,6,-45,5,0.3662109375,-2.74658203125,0.30517578125,2907,-4298,-529,18750,131,11359,102.996826171875,0.7196044921875,62.3968505859375,355,3.55,0
321,56854,0.781,159598,781,2,-86,1927,716,-0.0419921875,0.94091796875,0.349609375,-12,-83,14,-0.732421875,-5.06591796875,0.8544921875,-4529,-4210,1377,12555,479,-22007,68.9666748046875,2.6312255859375,-120.8880615234375,357,3.57,0
322,56855,0.783,159600,783,0,72,2002,-371,0.03515625,0.9775390625,-0.18115234375,0,-83,5,0.0,-5.06591796875,0.30517578125,3206,-3479,-5048,17982,122,31168,98.778076171875,0.670166015625,171.2109375,349,3.49,0
323,56856,0.784,159601,784,1,48,1981,-453,0.0234375,0.96728515625,-0.22119140625,11,-27,2,0.67138671875,-1.64794921875,0.1220703125,2891,-4341,-517,18751,131,11355,103.0023193359375,0.7196044921875,62.3748779296875,355,3.55,0
324,56857,0.785,159602,785,2,-86,1922,717,-0.0419921875,0.9384765625,0.35009765625,-12,-81,14,-0.732421875,-4.94384765625,0.8544921875,-4526,-4227,1391,12554,477,-22011,68.961181640625,2.6202392578125,-120.9100341796875,357,3.57,0
325,56858,0.79,159607,790,0,80,2000,-366,0.0390625,0.9765625,-0.1787109375,7,-82,8,0.42724609375,-5.0048828125,0.48828125,3230,-3476,-5100,17983,123,31161,98.7835693359375,0.6756591796875,171.1724853515625,349,3.49,0
326,56859,0.791,159608,791,1,52,1982,-450,0.025390625,0.9677734375,-0.2197265625,14,-22,2,0.8544921875,-1.3427734375,0.1220703125,2874,-4336,-453,18751,131,11354,103.0023193359375,0.7196044921875,62.369384765625,355,3.55,0
327,56860,0.792,159609,792,2,-83,1912,719,-0.04052734375,0.93359375,0.35107421875,-9,-75,14,-0.54931640625,-4.57763671875,0.8544921875,-4533,-4182,1429,12553,474,-22019,68.9556884765625,2.603759765625,-120.9539794921875,357,3.57,0
328,56861,0.797,159614,797,0,76,2005,-367,0.037109375,0.97900390625,-0.17919921875,10,-76,10,0.6103515625,-4.638671875,0.6103515625,3249,-3493,-5099,17984,123,31153,98.7890625,0.6756591796875,171.1285400390625,349,3.49,0
329,56862,0.798,159615,798,1,47,1991,-450,0.02294921875,0.97216796875,-0.2197265625,3,-19,1,0.18310546875,-1.15966796875,0.06103515625,2880,-4346,-491,18751,132,11353,103.0023193359375,0.72509765625,62.3638916015625,355,3.55,0
330,56863,0.799,159616,799,2,-80,1909,721,-0.0390625,0.93212890625,0.35205078125,-12,-72,15,-0.732421875,-4.39453125,0.91552734375,-4563,-4163,1445,12553,472,-22022,68.9556884765625,2.5927734375,-120.970458984375,357,3.57,0
331,56864,0.804,159621,804,0,76,2005,-367,0.037109375,0.97900390625,-0.17919921875,10,-76,10,0.6103515625,-4.638671875,0.6103515625,3249,-3493,-5099,17984,123,31153,98.7890625,0.6756591796875,171.1285400390625,349,3.49,0
332,56865,0.806,159623,806,2,-74,1904,724,-0.0361328125,0.9296875,0.353515625,-20,-62,16,-1.220703125,-3.7841796875,0.9765625,-4590,-4150,1424,12551,469,-22028,68.9447021484375,2.5762939453125,-121.00341796875,357,3.57,0
333,56866,0.811,159628,811,0,78,2010,-366,0.0380859375,0.9814453125,-0.1787109375,10,-41,17,0.6103515625,-2.50244140625,1.03759765625,3249,-3485,-5103,17985,122,31150,98.7945556640625,0.670166015625,171.112060546875,349,3.49,0
334,56867,0.812,159629,812,1,37,1993,-453,0.01806640625,0.97314453125,-0.22119140625,0,-12,-1,0.0,-0.732421875,-0.06103515625,2888,-4338,-506,18751,132,11352,103.0023193359375,0.72509765625,62.3583984375,355,3.55,0
335,56868,0.813,159630,813,2,-70,1904,725,-0.0341796875,0.9296875,0.35400390625,-19,-55,18,-1.15966796875,-3.35693359375,1.0986328125,-4590,-4157,1431,12550,468,-22030,68.939208984375,2.57080078125,-121.014404296875,357,3.57,0
336,56869,0.818,159635,818,0,80,2014,-371,0.0390625,0.9833984375,-0.18115234375,11,-33,18,0.67138671875,-2.01416015625,1.0986328125,3240,-3476,-5110,17986,121,31145,98.800048828125,0.6646728515625,171.0845947265625,349,3.49,0
337,56870,0.819,159636,819,1,24,1992,-462,0.01171875,0.97265625,-0.2255859375,0,6,1,0.0,0.3662109375,0.06103515625,2892,-4332,-524,18750,132,11354,102.996826171875,0.72509765625,62.369384765625,355,3.55,0
338,56871,0.82,159637,820,2,-65,1907,726,-0.03173828125,0.93115234375,0.3544921875,-17,-47,18,-1.03759765625,-2.86865234375,1.0986328125,-4584,-4163,1461,12549,466,-22033,68.9337158203125,2.559814453125,-121.0308837890625,357,3.57,0
339,56872,0.825,159642,825,0,83,2025,-369,0.04052734375,0.98876953125,-0.18017578125,14,-21,20,0.8544921875,-1.28173828125,1.220703125,3235,-3508,-5169,17987,119,31147,98.8055419921875,0.6536865234375,171.0955810546875,349,3.49,0
340,56873,0.827,159644,827,2,-62,1916,725,-0.0302734375,0.935546875,0.35400390625,-22,-35,20,-1.3427734375,-2.13623046875,1.220703125,-4549,-4125,1483,12547,464,-22036,68.9227294921875,2.548828125,-121.04736328125,357,3.57,0
341,56874,0.832,159649,832,0,83,2029,-370,0.04052734375,0.99072265625,-0.1806640625,10,-21,20,0.6103515625,-1.28173828125,1.220703125,3207,-3520,-5186,17988,118,31147,98.81103515625,0.648193359375,171.0955810546875,348,3.48,0
342,56875,0.839,159656,839,2,-62,1919,724,-0.0302734375,0.93701171875,0.353515625,-28,-30,21,-1.708984375,-1.8310546875,1.28173828125,-4550,-4123,1469,12545,463,-22037,68.9117431640625,2.5433349609375,-121.0528564453125,357,3.57,0
343,56876,0.839,159656,839,0,79,2030,-368,0.03857421875,0.9912109375,-0.1796875,12,-18,20,0.732421875,-1.0986328125,1.220703125,3202,-3522,-5181,17988,117,31142,98.81103515625,0.6427001953125,171.068115234375,348,3.48,0
344,56877,0.84,159657,840,1,10,1980,-447,0.0048828125,0.966796875,-0.21826171875,20,33,4,1.220703125,2.01416015625,0.244140625,2882,-4313,-557,18752,130,11361,103.0078125,0.714111328125,62.4078369140625,355,3.55,0
345,56878,0.841,159658,841,2,-64,1919,726,-0.03125,0.93701171875,0.3544921875,-25,-20,23,-1.52587890625,-1.220703125,1.40380859375,-4551,-4101,1497,12543,461,-22038,68.9007568359375,2.5323486328125,-121.058349609375,357,3.57,0
346,56879,0.846,159663,846,0,76,2029,-363,0.037109375,0.99072265625,-0.17724609375,-2,-16,15,-0.1220703125,-0.9765625,0.91552734375,3206,-3511,-5221,17988,115,31145,98.81103515625,0.6317138671875,171.0845947265625,348,3.48,0
347,56880,0.847,159664,847,1,9,1986,-446,0.00439453125,0.9697265625,-0.2177734375,23,39,1,1.40380859375,2.38037109375,0.06103515625,2889,-4299,-561,18753,129,11363,103.0133056640625,0.7086181640625,62.4188232421875,355,3.55,0
348,56881,0.848,159665,848,2,-66,1918,729,-0.0322265625,0.9365234375,0.35595703125,-19,-15,23,-1.15966796875,-0.91552734375,1.40380859375,-4559,-4102,1488,12542,460,-22039,68.895263671875,2.52685546875,-121.0638427734375,357,3.57,0
349,56882,0.853,159670,853,0,70,2024,-357,0.0341796875,0.98828125,-0.17431640625,-8,-14,13,-0.48828125,-0.8544921875,0.79345703125,3209,-3505,-5204,17987,115,31145,98.8055419921875,0.6317138671875,171.0845947265625,348,3.48,0
350,56883,0.854,159671,854,1,1,1996,-437,0.00048828125,0.974609375,-0.21337890625,10,41,-9,0.6103515625,2.50244140625,-0.54931640625,2907,-4300,-593,18754,129,11369,103.018798828125,0.7086181640625,62.4517822265625,355,3.55,0
351,56884,0.855,159672,855,2,-67,1918,730,-0.03271484375,0.9365234375,0.3564453125,-17,-11,24,-1.03759765625,-0.67138671875,1.46484375,-4565,-4087,1510,12541,459,-22039,68.8897705078125,2.5213623046875,-121.0638427734375,357,3.57,0
352,56885,0.86,159677,860,0,70,2024,-357,0.0341796875,0.98828125,-0.17431640625,-8,-14,13,-0.48828125,-0.8544921875,0.79345703125,3209,-3505,-5204,17987,115,31145,98.8055419921875,0.6317138671875,171.0845947265625,348,3.48,0
353,56886,0.861,159678,861,1,2,1997,-437,0.0009765625,0.97509765625,-0.21337890625,0,43,-10,0.0,2.62451171875,-0.6103515625,2923,-4299,-582,18753,129,11372,103.0133056640625,0.7086181640625,62.46826171875,355,3.55,0
354,56887,0.862,159679,862,2,-71,1917,728,-0.03466796875,0.93603515625,0.35546875,-20,-4,24,-1.220703125,-0.244140625,1.46484375,-4551,-4102,1453,12540,458,-22038,68.88427734375,2.515869140625,-121.058349609375,357,3.57,0
355,56888,0.867,159684,867,0,54,2007,-353,0.0263671875,0.97998046875,-0.17236328125,-15,-1,6,-0.91552734375,-0.06103515625,0.3662109375,3223,-3473,-5182,17985,113,31146,98.7945556640625,0.6207275390625,171.090087890625,348,3.48,0
356,56889,0.869,159686,869,2,-76,1915,728,-0.037109375,0.93505859375,0.35546875,-23,-2,25,-1.40380859375,-0.1220703125,1.52587890625,-4543,-4111,1486,12539,457,-22038,68.8787841796875,2.5103759765625,-121.058349609375,357,3.57,0
357,56890,0.874,159691,874,0,49,2004,-351,0.02392578125,0.978515625,-0.17138671875,-7,2,5,-0.42724609375,0.1220703125,0.30517578125,3217,-3479,-5168,17985,113,31147,98.7945556640625,0.6207275390625,171.0955810546875,348,3.48,0
358,56891,0.875,159692,875,1,0,1992,-447,0.0,0.97265625,-0.21826171875,-14,47,-11,-0.8544921875,2.86865234375,-0.67138671875,2947,-4297,-529,18751,129,11381,103.0023193359375,0.7086181640625,62.5177001953125,355,3.55,0
359,56892,0.876,159693,876,2,-80,1913,729,-0.0390625,0.93408203125,0.35595703125,-21,0,26,-1.28173828125,0.0,1.5869140625,-4549,-4128,1472,12538,456,-22038,68.873291015625,2.5048828125,-121.058349609375,357,3.57,0
360,56893,0.881,159698,881,0,35,2007,-351,0.01708984375,0.97998046875,-0.17138671875,1,10,5,0.06103515625,0.6103515625,0.30517578125,3230,-3490,-5186,17985,113,31144,98.7945556640625,0.6207275390625,171.0791015625,348,3.48,0
361,56894,0.882,159699,882,1,-9,1990,-451,-0.00439453125,0.9716796875,-0.22021484375,-12,48,-12,-0.732421875,2.9296875,-0.732421875,2932,-4287,-544,18750,129,11384,102.996826171875,0.7086181640625,62.5341796875,355,3.55,0
362,56895,0.883,159700,883,2,-89,1913,732,-0.04345703125,0.93408203125,0.357421875,-11,3,28,-0.67138671875,0.18310546875,1.708984375,-4502,-4112,1487,12537,454,-22037,68.8677978515625,2.493896484375,-121.0528564453125,357,3.57,0
363,56896,0.888,159705,888,0,31,2011,-353,0.01513671875,0.98193359375,-0.17236328125,1,11,2,0.06103515625,0.67138671875,0.1220703125,3231,-3497,-5213,17985,112,31149,98.7945556640625,0.615234375,171.1065673828125,348,3.48,0
364,56897,0.889,159706,889,1,-15,1988,-452,-0.00732421875,0.970703125,-0.220703125,-15,45,-9,-0.91552734375,2.74658203125,-0.54931640625,2967,-4276,-541,18748,129,11390,102.98583984375,0.7086181640625,62.567138671875,355,3.55,0
365,56898,0.89,159707,890,2,-94,1919,727,-0.0458984375,0.93701171875,0.35498046875,-19,-5,30,-1.15966796875,-0.30517578125,1.8310546875,-4511,-4113,1524,12535,453,-22037,68.8568115234375,2.4884033203125,-121.0528564453125,356,3.56,0
366,56899,0.895,159712,895,0,31,2011,-353,0.01513671875,0.98193359375,-0.17236328125,1,11,2,0.06103515625,0.67138671875,0.1220703125,3231,-3497,-5213,17985,112,31149,98.7945556640625,0.615234375,171.1065673828125,348,3.48,0
367,56900,0.896,159713,896,1,-16,1983,-453,-0.0078125,0.96826171875,-0.22119140625,-13,45,-8,-0.79345703125,2.74658203125,-0.48828125,2949,-4273,-544,18747,129,11393,102.9803466796875,0.7086181640625,62.5836181640625,355,3.55,0
368,56901,0.903,159720,903,2,-90,1912,720,-0.0439453125,0.93359375,0.3515625,-38,11,30,-2.3193359375,0.67138671875,1.8310546875,-4497,-4153,1558,12532,451,-22035,68.84033203125,2.4774169921875,-121.0418701171875,356,3.56,0
369,56902,0.903,159720,903,0,18,2013,-352,0.0087890625,0.98291015625,-0.171875,2,34,1,0.1220703125,2.0751953125,0.06103515625,3245,-3541,-5269,17986,111,31152,98.800048828125,0.6097412109375,171.123046875,348,3.48,0
370,56903,0.903,159720,903,1,-21,1987,-452,-0.01025390625,0.97021484375,-0.220703125,-15,41,-7,-0.91552734375,2.50244140625,-0.42724609375,2956,-4262,-519,18746,129,11396,102.974853515625,0.7086181640625,62.60009765625,355,3.55,0
371,56904,0.904,159721,904,2,-91,1911,723,-0.04443359375,0.93310546875,0.35302734375,-30,11,30,-1.8310546875,0.67138671875,1.8310546875,-4532,-4109,1553,12514,438,-22048,68.741455078125,2.406005859375,-121.11328125,356,3.56,0
372,56905,0.909,159726,909,0,13,2019,-355,0.00634765625,0.98583984375,-0.17333984375,4,43,0,0.244140625,2.62451171875,0.0,3244,-3537,-5276,17985,110,31158,98.7945556640625,0.604248046875,171.156005859375,348,3.48,0
373,56906,0.91,159727,910,1,-41,1981,-459,-0.02001953125,0.96728515625,-0.22412109375,-10,30,-9,-0.6103515625,1.8310546875,-0.54931640625,2968,-4270,-547,18745,129,11400,102.9693603515625,0.7086181640625,62.6220703125,355,3.55,0
374,56907,0.911,159728,911,2,-92,1911,727,-0.044921875,0.93310546875,0.35498046875,-20,3,31,-1.220703125,0.18310546875,1.89208984375,-4541,-4100,1583,12514,438,-22048,68.741455078125,2.406005859375,-121.11328125,356,3.56,0
375,56908,0.916,159733,916,0,11,2014,-363,0.00537109375,0.9833984375,-0.17724609375,6,56,1,0.3662109375,3.41796875,0.06103515625,3266,-3525,-5277,17987,109,31161,98.8055419921875,0.5987548828125,171.1724853515625,348,3.48,0
376,56909,0.917,159734,917,1,-44,1975,-459,-0.021484375,0.96435546875,-0.22412109375,-5,26,-7,-0.30517578125,1.5869140625,-0.42724609375,2938,-4273,-551,18745,129,11402,102.9693603515625,0.7086181640625,62.633056640625,355,3.55,0
377,56910,0.918,159735,918,2,-88,1913,723,-0.04296875,0.93408203125,0.35302734375,-14,9,30,-0.8544921875,0.54931640625,1.8310546875,-4530,-4095,1579,12514,438,-22053,68.741455078125,2.406005859375,-121.1407470703125,356,3.56,0
378,56911,0.923,159740,923,0,5,2014,-363,0.00244140625,0.9833984375,-0.17724609375,9,54,0,0.54931640625,3.2958984375,0.0,3245,-3533,-5260,17988,109,31165,98.81103515625,0.5987548828125,171.1944580078125,348,3.48,0
379,56912,0.924,159741,924,1,-48,1974,-458,-0.0234375,0.9638671875,-0.2236328125,2,11,-8,0.1220703125,0.67138671875,-0.48828125,2952,-4294,-569,18745,130,11404,102.9693603515625,0.714111328125,62.64404296875,355,3.55,0
380,56913,0.925,159742,925,2,-89,1917,719,-0.04345703125,0.93603515625,0.35107421875,-22,11,30,-1.3427734375,0.67138671875,1.8310546875,-4537,-4074,1586,12512,437,-22054,68.73046875,2.4005126953125,-121.146240234375,356,3.56,0
381,56914,0.93,159747,930,0,5,2014,-363,0.00244140625,0.9833984375,-0.17724609375,9,54,0,0.54931640625,3.2958984375,0.0,3245,-3533,-5260,17988,109,31165,98.81103515625,0.5987548828125,171.1944580078125,348,3.48,0
382,56915,0.931,159748,931,1,-49,1975,-463,-0.02392578125,0.96435546875,-0.22607421875,6,2,-9,0.3662109375,0.1220703125,-0.54931640625,2987,-4290,-549,18745,130,11404,102.9693603515625,0.714111328125,62.64404296875,355,3.55,0
383,56916,0.932,159749,932,2,-89,1920,715,-0.04345703125,0.9375,0.34912109375,-40,9,28,-2.44140625,0.54931640625,1.708984375,-4543,-4091,1588,12512,437,-22057,68.73046875,2.4005126953125,-121.1627197265625,356,3.56,0
384,56917,0.945,159762,945,0,6,2016,-365,0.0029296875,0.984375,-0.17822265625,6,45,-4,0.3662109375,2.74658203125,-0.244140625,3270,-3537,-5283,17989,108,31174,98.8165283203125,0.59326171875,171.243896484375,348,3.48,0
385,56918,0.945,159762,945,1,-48,1977,-463,-0.0234375,0.96533203125,-0.22607421875,4,-14,-10,0.244140625,-0.8544921875,-0.6103515625,2958,-4312,-557,18745,133,11404,102.9693603515625,0.7305908203125,62.64404296875,355,3.55,0
386,56919,0.946,159763,946,2,-88,1918,723,-0.04296875,0.9365234375,0.35302734375,-32,11,25,-1.953125,0.67138671875,1.52587890625,-4552,-4082,1579,12512,437,-22057,68.73046875,2.4005126953125,-121.1627197265625,356,3.56,0
387,56920,0.951,159768,951,0,0,2012,-357,0.0,0.982421875,-0.17431640625,0,31,-5,0.0,1.89208984375,-0.30517578125,3296,-3523,-5285,17989,108,31185,98.8165283203125,0.59326171875,171.3043212890625,348,3.48,0
388,56921,0.952,159769,952,1,-44,1977,-464,-0.021484375,0.96533203125,-0.2265625,3,-16,-12,0.18310546875,-0.9765625,-0.732421875,2957,-4312,-574,18745,134,11404,102.9693603515625,0.736083984375,62.64404296875,355,3.55,0
389,56922,0.953,159770,953,2,-86,1915,726,-0.0419921875,0.93505859375,0.3544921875,-10,22,24,-0.6103515625,1.3427734375,1.46484375,-4560,-4102,1571,12512,437,-22059,68.73046875,2.4005126953125,-121.1737060546875,356,3.56,0
390,56923,0.958,159775,958,0,-7,2012,-355,-0.00341796875,0.982421875,-0.17333984375,-1,24,-4,-0.06103515625,1.46484375,-0.244140625,3297,-3517,-5270,17989,108,31183,98.8165283203125,0.59326171875,171.2933349609375,348,3.48,0
391,56924,0.959,159776,959,1,-46,1980,-462,-0.0224609375,0.966796875,-0.2255859375,2,-16,-15,0.1220703125,-0.9765625,-0.91552734375,2962,-4313,-586,18745,135,11403,102.9693603515625,0.7415771484375,62.6385498046875,355,3.55,0
392,56925,0.96,159777,960,2,-87,1916,723,-0.04248046875,0.935546875,0.35302734375,-12,22,21,-0.732421875,1.3427734375,1.28173828125,-4533,-4114,1572,12512,437,-22059,68.73046875,2.4005126953125,-121.1737060546875,356,3.56,0
393,56926,0.965,159782,965,0,-12,2009,-347,-0.005859375,0.98095703125,-0.16943359375,-1,20,-6,-0.06103515625,1.220703125,-0.3662109375,3289,-3506,-5271,17989,108,31185,98.8165283203125,0.59326171875,171.3043212890625,349,3.49,0
394,56927,0.966,159783,966,1,-40,1980,-465,-0.01953125,0.966796875,-0.22705078125,2,-17,-15,0.1220703125,-1.03759765625,-0.91552734375,2963,-4320,-600,18745,137,11402,102.9693603515625,0.7525634765625,62.633056640625,355,3.55,0
395,56928,0.967,159784,967,2,-90,1919,716,-0.0439453125,0.93701171875,0.349609375,-25,21,18,-1.52587890625,1.28173828125,1.0986328125,-4542,-4151,1543,12511,437,-22059,68.7249755859375,2.4005126953125,-121.1737060546875,355,3.55,0
396,56929,0.972,159789,972,0,-16,2006,-349,-0.0078125,0.9794921875,-0.17041015625,-2,13,-5,-0.1220703125,0.79345703125,-0.30517578125,3277,-3526,-5257,17989,108,31191,98.8165283203125,0.59326171875,171.3372802734375,349,3.49,0
397,56930,0.973,159790,973,1,-34,1977,-469,-0.0166015625,0.96533203125,-0.22900390625,2,-18,-15,0.1220703125,-1.0986328125,-0.91552734375,2998,-4310,-620,18745,138,11402,102.9693603515625,0.758056640625,62.633056640625,355,3.55,0
398,56931,0.974,159791,974,2,-92,1919,715,-0.044921875,0.93701171875,0.34912109375,-26,17,18,-1.5869140625,1.03759765625,1.0986328125,-4562,-4148,1577,12511,437,-22063,68.7249755859375,2.4005126953125,-121.1956787109375,355,3.55,0
399,56932,0.979,159796,979,0,-15,2005,-345,-0.00732421875,0.97900390625,-0.16845703125,-2,8,-6,-0.1220703125,0.48828125,-0.3662109375,3273,-3529,-5247,17989,108,31188,98.8165283203125,0.59326171875,171.32080078125,349,3.49,0
400,56933,0.98,159797,980,1,-28,1982,-465,-0.013671875,0.9677734375,-0.22705078125,-1,-10,-17,-0.06103515625,-0.6103515625,-1.03759765625,2990,-4325,-571,18744,140,11402,102.9638671875,0.76904296875,62.633056640625,355,3.55,0
401,56934,0.981,159798,981,2,-93,1920,715,-0.04541015625,0.9375,0.34912109375,-23,14,17,-1.40380859375,0.8544921875,1.03759765625,-4566,-4150,1578,12511,437,-22063,68.7249755859375,2.4005126953125,-121.1956787109375,355,3.55,0
402,56935,0.986,159803,986,0,-16,2001,-339,-0.0078125,0.97705078125,-0.16552734375,1,4,-4,0.06103515625,0.244140625,-0.244140625,3245,-3498,-5225,17989,108,31193,98.8165283203125,0.59326171875,171.3482666015625,350,3.5,0
403,56936,0.987,159804,987,1,-23,1984,-465,-0.01123046875,0.96875,-0.22705078125,1,-9,-13,0.06103515625,-0.54931640625,-0.79345703125,3002,-4330,-581,18744,141,11402,102.9638671875,0.7745361328125,62.633056640625,355,3.55,0
404,56937,0.988,159805,988,2,-96,1921,713,-0.046875,0.93798828125,0.34814453125,-25,11,15,-1.52587890625,0.67138671875,0.91552734375,-4570,-4137,1616,12511,437,-22062,68.7249755859375,2.4005126953125,-121.190185546875,355,3.55,0
405,56938,0.993,159810,993,0,-20,2000,-341,-0.009765625,0.9765625,-0.16650390625,2,3,-2,0.1220703125,0.18310546875,-0.1220703125,3251,-3503,-5177,17989,109,31194,98.8165283203125,0.5987548828125,171.353759765625,350,3.5,0
406,56939,0.994,159811,994,1,-27,1988,-465,-0.01318359375,0.970703125,-0.22705078125,1,-6,-15,0.06103515625,-0.3662109375,-0.91552734375,3012,-4313,-610,18744,142,11403,102.9638671875,0.780029296875,62.6385498046875,356,3.56,0
407,56940,0.995,159812,995,2,-96,1923,711,-0.046875,0.93896484375,0.34716796875,-31,8,15,-1.89208984375,0.48828125,0.91552734375,-4576,-4143,1589,12511,437,-22067,68.7249755859375,2.4005126953125,-121.2176513671875,355,3.55,0
408,56941,1.002,159819,1002,0,-17,2001,-341,-0.00830078125,0.97705078125,-0.16650390625,4,-2,-4,0.244140625,-0.1220703125,-0.244140625,3264,-3495,-5169,17990,109,31190,98.822021484375,0.5987548828125,171.331787109375,350,3.5,0
409,56942,1.017,159834,1017,1,-30,1992,-473,-0.0146484375,0.97265625,-0.23095703125,2,-8,-14,0.1220703125,-0.48828125,-0.8544921875,3020,-4310,-581,18743,143,11403,102.9583740234375,0.7855224609375,62.6385498046875,356,3.56,0
410,56943,1.021,159838,1021,0,-20,2007,-349,-0.009765625,0.97998046875,-0.17041015625,8,-14,1,0.48828125,-0.8544921875,0.06103515625,3258,-3528,-5166,17991,109,31193,98.8275146484375,0.5987548828125,171.3482666015625,350,3.5,0
411,56944,1.022,159839,1022,1,-34,1977,-460,-0.0166015625,0.96533203125,-0.224609375,1,-2,-13,0.06103515625,-0.1220703125,-0.79345703125,2981,-4278,-526,18742,146,11405,102.952880859375,0.802001953125,62.6495361328125,356,3.56,0
412,56945,1.023,159840,1023,2,-98,1920,710,-0.0478515625,0.9375,0.3466796875,-31,-5,12,-1.89208984375,-0.30517578125,0.732421875,-4604,-4099,1539,12512,439,-22069,68.73046875,2.4114990234375,-121.2286376953125,355,3.55,0
413,56946,1.028,159845,1028,0,-8,2016,-355,-0.00390625,0.984375,-0.17333984375,8,-19,3,0.48828125,-1.15966796875,0.18310546875,3240,-3556,-5207,17992,108,31191,98.8330078125,0.59326171875,171.3372802734375,350,3.5,0
414,56947,1.029,159846,1029,1,-34,1978,-458,-0.0166015625,0.9658203125,-0.2236328125,-2,2,-13,-0.1220703125,0.1220703125,-0.79345703125,3001,-4287,-553,18742,147,11405,102.952880859375,0.8074951171875,62.6495361328125,356,3.56,0
415,56948,1.03,159847,1030,2,-100,1920,709,-0.048828125,0.9375,0.34619140625,-33,-7,11,-2.01416015625,-0.42724609375,0.67138671875,-4609,-4121,1600,12512,439,-22069,68.73046875,2.4114990234375,-121.2286376953125,355,3.55,0
416,56949,1.035,159852,1035,0,-8,2016,-360,-0.00390625,0.984375,-0.17578125,8,-18,5,0.48828125,-1.0986328125,0.30517578125,3235,-3546,-5230,17993,108,31191,98.8385009765625,0.59326171875,171.3372802734375,350,3.5,0
417,56950,1.036,159853,1036,1,-39,1979,-452,-0.01904296875,0.96630859375,-0.220703125,4,-1,-16,0.244140625,-0.06103515625,-0.9765625,2975,-4263,-525,18742,147,11404,102.952880859375,0.8074951171875,62.64404296875,356,3.56,0
418,56951,1.037,159854,1037,2,-98,1921,707,-0.0478515625,0.93798828125,0.34521484375,-38,-15,8,-2.3193359375,-0.91552734375,0.48828125,-4622,-4137,1583,12512,439,-22072,68.73046875,2.4114990234375,-121.2451171875,355,3.55,0
419,56952,1.042,159859,1042,0,-7,2011,-368,-0.00341796875,0.98193359375,-0.1796875,8,-10,6,0.48828125,-0.6103515625,0.3662109375,3243,-3547,-5205,17993,108,5318,98.8385009765625,0.59326171875,29.212646484375,351,3.51,0
420,56953,1.043,159860,1043,1,-44,1979,-455,-0.021484375,0.96630859375,-0.22216796875,2,-8,-17,0.1220703125,-0.48828125,-1.03759765625,2956,-4281,-574,18742,147,11404,102.952880859375,0.8074951171875,62.64404296875,356,3.56,0
421,56954,1.044,159861,1044,2,-94,1922,706,-0.0458984375,0.9384765625,0.3447265625,-43,-13,6,-2.62451171875,-0.79345703125,0.3662109375,-4613,-4133,1566,12513,440,-22071,68.7359619140625,2.4169921875,-121.2396240234375,355,3.55,0
422,56955,1.049,159866,1049,0,-1,2004,-372,-0.00048828125,0.978515625,-0.181640625,10,-9,5,0.6103515625,-0.54931640625,0.30517578125,3238,-3522,-5208,17993,109,5318,98.8385009765625,0.5987548828125,29.212646484375,351,3.51,0
423,56956,1.05,159867,1050,1,-45,1982,-456,-0.02197265625,0.9677734375,-0.22265625,7,-20,-21,0.42724609375,-1.220703125,-1.28173828125,2972,-4286,-646,18747,149,11397,102.9803466796875,0.8184814453125,62.6055908203125,356,3.56,0
424,56957,1.051,159868,1051,2,-93,1923,709,-0.04541015625,0.93896484375,0.34619140625,-45,-20,5,-2.74658203125,-1.220703125,0.30517578125,-4606,-4114,1595,12513,440,-22071,68.7359619140625,2.4169921875,-121.2396240234375,355,3.55,0
425,56958,1.056,159873,1056,0,-1,2004,-372,-0.00048828125,0.978515625,-0.181640625,10,-9,5,0.6103515625,-0.54931640625,0.30517578125,3238,-3522,-5208,17993,109,5318,98.8385009765625,0.5987548828125,29.212646484375,351,3.51,0
426,56959,1.057,159874,1057,1,-43,1981,-457,-0.02099609375,0.96728515625,-0.22314453125,16,-26,-20,0.9765625,-1.5869140625,-1.220703125,2955,-4287,-647,18747,149,11379,102.9803466796875,0.8184814453125,62.5067138671875,356,3.56,0
427,56960,1.058,159875,1058,2,-89,1925,714,-0.04345703125,0.93994140625,0.3486328125,-43,-25,2,-2.62451171875,-1.52587890625,0.1220703125,-4603,-4082,1628,12513,440,-22073,68.7359619140625,2.4169921875,-121.2506103515625,355,3.55,0
428,56961,1.068,159885,1068,0,1,1995,-389,0.00048828125,0.97412109375,-0.18994140625,17,-17,6,1.03759765625,-1.03759765625,0.3662109375,3274,-3498,-5263,17997,115,5335,98.8604736328125,0.6317138671875,29.3060302734375,351,3.51,0
429,56962,1.068,159885,1068,1,-44,1984,-453,-0.021484375,0.96875,-0.22119140625,16,-25,-23,0.9765625,-1.52587890625,-1.40380859375,2975,-4294,-625,18747,149,11379,102.9803466796875,0.8184814453125,62.5067138671875,356,3.56,0
430,56963,1.068,159885,1068,2,-88,1926,715,-0.04296875,0.9404296875,0.34912109375,-43,-26,0,-2.62451171875,-1.5869140625,0.0,-4599,-4099,1644,12514,440,-22072,68.741455078125,2.4169921875,-121.2451171875,355,3.55,0
431,56964,1.07,159887,1070,0,10,1990,-393,0.0048828125,0.9716796875,-0.19189453125,25,-22,9,1.52587890625,-1.3427734375,0.54931640625,3253,-3503,-5250,17998,114,5335,98.865966796875,0.626220703125,29.3060302734375,351,3.51,0
432,56965,1.071,159888,1071,1,-39,1985,-451,-0.01904296875,0.96923828125,-0.22021484375,11,-18,-19,0.67138671875,-1.0986328125,-1.15966796875,2927,-4279,-592,18747,150,11379,102.9803466796875,0.823974609375,62.5067138671875,356,3.56,0
433,56966,1.072,159889,1072,2,-87,1927,714,-0.04248046875,0.94091796875,0.3486328125,-47,-30,-1,-2.86865234375,-1.8310546875,-0.06103515625,-4604,-4115,1638,12514,440,-22072,68.741455078125,2.4169921875,-121.2451171875,355,3.55,0
434,56967,1.077,159894,1077,0,11,1992,-392,0.00537109375,0.97265625,-0.19140625,31,-27,13,1.89208984375,-1.64794921875,0.79345703125,3229,-3517,-5266,18003,114,5333,98.8934326171875,0.626220703125,29.2950439453125,351,3.51,0
435,56968,1.078,159895,1078,1,-36,1985,-447,-0.017578125,0.96923828125,-0.21826171875,8,-10,-17,0.48828125,-0.6103515625,-1.03759765625,2928,-4283,-572,18747,150,11370,102.9803466796875,0.823974609375,62.457275390625,356,3.56,0
436,56969,1.079,159896,1079,2,-85,1924,713,-0.04150390625,0.939453125,0.34814453125,-56,-33,-3,-3.41796875,-2.01416015625,-0.18310546875,-4604,-4131,1643,12514,440,-22076,68.741455078125,2.4169921875,-121.26708984375,355,3.55,0
437,56970,1.084,159901,1084,0,13,1992,-392,0.00634765625,0.97265625,-0.19140625,38,-31,15,2.3193359375,-1.89208984375,0.91552734375,3230,-3518,-5211,18005,114,5332,98.9044189453125,0.626220703125,29.28955078125,351,3.51,0
438,56971,1.085,159902,1085,1,-34,1984,-447,-0.0166015625,0.96875,-0.21826171875,8,-11,-16,0.48828125,-0.67138671875,-0.9765625,2921,-4264,-557,18746,151,11370,102.974853515625,0.8294677734375,62.457275390625,356,3.56,0
439,56972,1.086,159903,1086,2,-82,1920,715,-0.0400390625,0.9375,0.34912109375,-57,-33,-3,-3.47900390625,-2.01416015625,-0.18310546875,-4624,-4123,1637,12515,441,-22076,68.7469482421875,2.4224853515625,-121.26708984375,356,3.56,0
440,56973,1.091,159908,1091,0,13,1992,-392,0.00634765625,0.97265625,-0.19140625,38,-31,15,2.3193359375,-1.89208984375,0.91552734375,3230,-3518,-5211,18005,114,5332,98.9044189453125,0.626220703125,29.28955078125,351,3.51,0
441,56974,1.092,159909,1092,1,-36,1988,-451,-0.017578125,0.970703125,-0.22021484375,13,-16,-11,0.79345703125,-0.9765625,-0.67138671875,2929,-4269,-558,18746,151,11370,102.974853515625,0.8294677734375,62.457275390625,356,3.56,0
442,56975,1.093,159910,1093,2,-76,1911,722,-0.037109375,0.93310546875,0.3525390625,-54,-35,-3,-3.2958984375,-2.13623046875,-0.18310546875,-4617,-4169,1624,12515,441,-22079,68.7469482421875,2.4224853515625,-121.2835693359375,356,3.56,0
443,56976,1.098,159915,1098,0,10,2010,-389,0.0048828125,0.9814453125,-0.18994140625,47,-49,21,2.86865234375,-2.99072265625,1.28173828125,3248,-3525,-5153,18016,112,5327,98.96484375,0.615234375,29.2620849609375,351,3.51,0
444,56977,1.099,159916,1099,1,-34,1989,-453,-0.0166015625,0.97119140625,-0.22119140625,15,-22,-9,0.91552734375,-1.3427734375,-0.54931640625,2936,-4274,-560,18746,151,11369,102.974853515625,0.8294677734375,62.4517822265625,356,3.56,0
445,56978,1.1,159917,1100,2,-73,1907,725,-0.03564453125,0.93115234375,0.35400390625,-51,-35,-4,-3.11279296875,-2.13623046875,-0.244140625,-4607,-4163,1596,12515,441,-22079,68.7469482421875,2.4224853515625,-121.2835693359375,356,3.56,0
446,56979,1.105,159922,1105,0,6,2010,-380,0.0029296875,0.9814453125,-0.185546875,45,-56,22,2.74658203125,-3.41796875,1.3427734375,3261,-3510,-5155,18018,111,5324,98.975830078125,0.6097412109375,29.24560546875,351,3.51,0
447,56980,1.106,159923,1106,1,-38,1998,-461,-0.0185546875,0.9755859375,-0.22509765625,21,-29,-10,1.28173828125,-1.77001953125,-0.6103515625,2948,-4283,-563,18746,152,11369,102.974853515625,0.8349609375,62.4517822265625,355,3.55,0
448,56981,1.119,159936,1119,2,-72,1904,727,-0.03515625,0.9296875,0.35498046875,-50,-35,-3,-3.0517578125,-2.13623046875,-0.18310546875,-4600,-4147,1613,12515,441,-22079,68.7469482421875,2.4224853515625,-121.2835693359375,356,3.56,0
449,56982,1.119,159936,1119,0,3,2023,-368,0.00146484375,0.98779296875,-0.1796875,35,-64,19,2.13623046875,-3.90625,1.15966796875,3280,-3492,-5183,18029,109,5315,99.0362548828125,0.5987548828125,29.1961669921875,351,3.51,0
450,56983,1.12,159937,1120,1,-39,1997,-455,-0.01904296875,0.97509765625,-0.22216796875,19,-31,-10,1.15966796875,-1.89208984375,-0.6103515625,2974,-4303,-568,18746,152,11368,102.974853515625,0.8349609375,62.4462890625,355,3.55,0
451,56984,1.121,159938,1121,2,-66,1905,736,-0.0322265625,0.93017578125,0.359375,-50,-32,2,-3.0517578125,-1.953125,0.1220703125,-4602,-4149,1605,12515,441,-22082,68.7469482421875,2.4224853515625,-121.300048828125,357,3.57,0
452,56985,1.126,159943,1126,0,0,2027,-359,0.0,0.98974609375,-0.17529296875,27,-65,17,1.64794921875,-3.96728515625,1.03759765625,3282,-3485,-5193,18031,109,5312,99.0472412109375,0.5987548828125,29.1796875,351,3.51,0
453,56986,1.127,159944,1127,1,-32,1991,-450,-0.015625,0.97216796875,-0.2197265625,16,-24,-15,0.9765625,-1.46484375,-0.91552734375,2925,-4303,-536,18746,152,11369,102.974853515625,0.8349609375,62.4517822265625,355,3.55,0
454,56987,1.128,159945,1128,2,-61,1907,739,-0.02978515625,0.93115234375,0.36083984375,-44,-29,6,-2.685546875,-1.77001953125,0.3662109375,-4602,-4150,1601,12514,440,-22082,68.741455078125,2.4169921875,-121.300048828125,357,3.57,0
455,56988,1.133,159950,1133,0,2,2032,-350,0.0009765625,0.9921875,-0.1708984375,11,-64,13,0.67138671875,-3.90625,0.79345703125,3270,-3494,-5166,18038,106,5307,99.085693359375,0.582275390625,29.1522216796875,351,3.51,0
456,56989,1.134,159951,1134,1,-33,1992,-450,-0.01611328125,0.97265625,-0.2197265625,15,-18,-12,0.91552734375,-1.0986328125,-0.732421875,2948,-4305,-534,18746,152,11369,102.974853515625,0.8349609375,62.4517822265625,355,3.55,0
457,56990,1.135,159952,1135,2,-57,1908,740,-0.02783203125,0.931640625,0.361328125,-41,-26,7,-2.50244140625,-1.5869140625,0.42724609375,-4602,-4151,1599,12514,440,-22085,68.741455078125,2.4169921875,-121.3165283203125,357,3.57,0
458,56991,1.14,159957,1140,0,2,2028,-347,0.0009765625,0.990234375,-0.16943359375,4,-57,8,0.244140625,-3.47900390625,0.48828125,3274,-3485,-5166,18039,106,5305,99.0911865234375,0.582275390625,29.1412353515625,351,3.51,0
459,56992,1.141,159958,1141,1,-30,1988,-447,-0.0146484375,0.970703125,-0.21826171875,11,-10,-13,0.67138671875,-0.6103515625,-0.79345703125,2942,-4315,-572,18746,152,11372,102.974853515625,0.8349609375,62.46826171875,355,3.55,0
460,56993,1.142,159959,1142,2,-53,1908,741,-0.02587890625,0.931640625,0.36181640625,-39,-22,8,-2.38037109375,-1.3427734375,0.48828125,-4592,-4136,1604,12514,440,-22085,68.741455078125,2.4169921875,-121.3165283203125,357,3.57,0
461,56994,1.147,159964,1147,0,2,2028,-347,0.0009765625,0.990234375,-0.16943359375,4,-57,8,0.244140625,-3.47900390625,0.48828125,3274,-3485,-5166,18039,106,5305,99.0911865234375,0.582275390625,29.1412353515625,351,3.51,0
462,56995,1.148,159965,1148,1,-35,1995,-449,-0.01708984375,0.97412109375,-0.21923828125,10,-9,-16,0.6103515625,-0.54931640625,-0.9765625,2959,-4308,-524,18745,153,11372,102.9693603515625,0.8404541015625,62.46826171875,355,3.55,0
463,56996,1.149,159966,1149,2,-48,1911,740,-0.0234375,0.93310546875,0.361328125,-33,-16,9,-2.01416015625,-0.9765625,0.54931640625,-4585,-4150,1586,12513,438,-22086,68.7359619140625,2.406005859375,-121.322021484375,357,3.57,0
464,56997,1.154,159971,1154,0,5,2012,-341,0.00244140625,0.982421875,-0.16650390625,0,-34,4,0.0,-2.0751953125,0.244140625,3302,-3477,-5118,18046,103,5301,99.129638671875,0.5657958984375,29.1192626953125,351,3.51,0
465,56998,1.155,159972,1155,1,-38,1996,-450,-0.0185546875,0.974609375,-0.2197265625,9,-11,-17,0.54931640625,-0.67138671875,-1.03759765625,2964,-4309,-517,18745,153,11372,102.9693603515625,0.8404541015625,62.46826171875,354,3.54,0
466,56999,1.156,159973,1156,2,-49,1911,740,-0.02392578125,0.93310546875,0.361328125,-33,-11,10,-2.01416015625,-0.67138671875,0.6103515625,-4593,-4164,1576,12513,438,-22088,68.7359619140625,2.406005859375,-121.3330078125,358,3.58,0
467,57000,1.161,159978,1161,0,1,2014,-342,0.00048828125,0.9833984375,-0.1669921875,3,-28,5,0.18310546875,-1.708984375,0.30517578125,3304,-3476,-5099,18047,103,5300,99.1351318359375,0.5657958984375,29.11376953125,351,3.51,0
468,57001,1.162,159979,1162,1,-33,1990,-451,-0.01611328125,0.9716796875,-0.22021484375,3,-20,-18,0.18310546875,-1.220703125,-1.0986328125,2979,-4277,-517,18745,153,11379,102.9693603515625,0.8404541015625,62.5067138671875,354,3.54,0
469,57002,1.163,159980,1163,2,-50,1911,741,-0.0244140625,0.93310546875,0.36181640625,-32,-7,13,-1.953125,-0.42724609375,0.79345703125,-4576,-4196,1543,12513,438,-22088,68.7359619140625,2.406005859375,-121.3330078125,358,3.58,0
470,57003,1.168,159985,1168,0,3,2024,-344,0.00146484375,0.98828125,-0.16796875,7,-15,6,0.42724609375,-0.91552734375,0.3662109375,3285,-3479,-5120,18055,97,5301,99.1790771484375,0.5328369140625,29.1192626953125,351,3.51,0
471,57004,1.169,159986,1169,1,-31,1983,-450,-0.01513671875,0.96826171875,-0.2197265625,7,-18,-15,0.42724609375,-1.0986328125,-0.91552734375,2999,-4278,-529,18744,153,11380,102.9638671875,0.8404541015625,62.51220703125,354,3.54,0
472,57005,1.177,159994,1177,2,-56,1912,741,-0.02734375,0.93359375,0.36181640625,-27,-3,17,-1.64794921875,-0.18310546875,1.03759765625,-4552,-4214,1486,12512,436,-22090,68.73046875,2.39501953125,-121.343994140625,358,3.58,0
473,57006,1.177,159994,1177,0,7,2027,-344,0.00341796875,0.98974609375,-0.16796875,4,-9,4,0.244140625,-0.54931640625,0.244140625,3261,-3469,-5155,18056,97,5301,99.1845703125,0.5328369140625,29.1192626953125,351,3.51,0
474,57007,1.177,159994,1177,1,-26,1983,-451,-0.0126953125,0.96826171875,-0.22021484375,20,-16,-13,1.220703125,-0.9765625,-0.79345703125,3026,-4273,-574,18744,153,11386,102.9638671875,0.8404541015625,62.545166015625,354,3.54,0
475,57008,1.177,159994,1177,2,-60,1915,739,-0.029296875,0.93505859375,0.36083984375,-30,-1,19,-1.8310546875,-0.06103515625,1.15966796875,-4544,-4205,1484,12512,436,-22090,68.73046875,2.39501953125,-121.343994140625,358,3.58,0
476,57009,1.182,159999,1182,0,7,2027,-344,0.00341796875,0.98974609375,-0.16796875,4,-9,4,0.244140625,-0.54931640625,0.244140625,3261,-3469,-5155,18056,97,5301,99.1845703125,0.5328369140625,29.1192626953125,351,3.51,0
477,57010,1.183,160000,1183,1,-27,1988,-447,-0.01318359375,0.970703125,-0.21826171875,25,-14,-10,1.52587890625,-0.8544921875,-0.6103515625,3010,-4274,-597,18744,153,11386,102.9638671875,0.8404541015625,62.545166015625,354,3.54,0
478,57011,1.184,160001,1184,2,-66,1919,737,-0.0322265625,0.93701171875,0.35986328125,-40,0,20,-2.44140625,0.0,1.220703125,-4542,-4223,1486,12510,434,-22092,68.719482421875,2.384033203125,-121.35498046875,358,3.58,0
479,57012,1.189,160006,1189,0,9,2033,-343,0.00439453125,0.99267578125,-0.16748046875,0,7,3,0.0,0.42724609375,0.18310546875,3288,-3486,-5180,18064,90,5305,99.228515625,0.494384765625,29.1412353515625,350,3.5,0
480,57013,1.19,160007,1190,1,-21,1989,-447,-0.01025390625,0.97119140625,-0.21826171875,27,-10,-14,1.64794921875,-0.6103515625,-0.8544921875,3019,-4271,-646,18743,153,11387,102.9583740234375,0.8404541015625,62.5506591796875,354,3.54,0
481,57014,1.191,160008,1191,2,-67,1919,739,-0.03271484375,0.93701171875,0.36083984375,-42,1,19,-2.5634765625,0.06103515625,1.15966796875,-4528,-4222,1496,12510,434,-22092,68.719482421875,2.384033203125,-121.35498046875,358,3.58,0
482,57015,1.196,160013,1196,0,9,2037,-347,0.00439453125,0.99462890625,-0.16943359375,-3,13,2,-0.18310546875,0.79345703125,0.1220703125,3306,-3488,-5172,18064,90,5307,99.228515625,0.494384765625,29.1522216796875,350,3.5,0
483,57016,1.197,160014,1197,1,-24,1998,-451,-0.01171875,0.9755859375,-0.22021484375,23,-7,-15,1.40380859375,-0.42724609375,-0.91552734375,3024,-4279,-656,18743,153,11380,102.9583740234375,0.8404541015625,62.51220703125,355,3.55,0
484,57017,1.198,160015,1198,2,-67,1918,742,-0.03271484375,0.9365234375,0.3623046875,-38,2,19,-2.3193359375,0.1220703125,1.15966796875,-4536,-4251,1440,12510,434,-22093,68.719482421875,2.384033203125,-121.3604736328125,358,3.58,0
485,57018,1.203,160020,1203,0,5,2027,-357,0.00244140625,0.98974609375,-0.17431640625,-6,21,-2,-0.3662109375,1.28173828125,-0.1220703125,3321,-3508,-5158,18065,91,5311,99.2340087890625,0.4998779296875,29.1741943359375,350,3.5,0
486,57019,1.204,160021,1204,1,-21,2003,-450,-0.01025390625,0.97802734375,-0.2197265625,22,-5,-11,1.3427734375,-0.30517578125,-0.67138671875,3037,-4292,-615,18743,153,11380,102.9583740234375,0.8404541015625,62.51220703125,355,3.55,0
487,57020,1.205,160022,1205,2,-66,1916,746,-0.0322265625,0.935546875,0.3642578125,-28,0,19,-1.708984375,0.0,1.15966796875,-4550,-4250,1455,12508,432,-22094,68.70849609375,2.373046875,-121.365966796875,358,3.58,0
488,57021,1.21,160027,1210,0,6,2017,-364,0.0029296875,0.98486328125,-0.177734375,-3,21,-5,-0.18310546875,1.28173828125,-0.30517578125,3326,-3508,-5158,18073,83,5314,99.2779541015625,0.4559326171875,29.190673828125,350,3.5,0
489,57022,1.212,160029,1212,2,-65,1915,745,-0.03173828125,0.93505859375,0.36376953125,-27,0,18,-1.64794921875,0.0,1.0986328125,-4549,-4233,1513,12508,432,-22094,68.70849609375,2.373046875,-121.365966796875,358,3.58,0
490,57023,1.217,160034,1217,0,6,2017,-364,0.0029296875,0.98486328125,-0.177734375,-3,21,-5,-0.18310546875,1.28173828125,-0.30517578125,3326,-3508,-5158,18073,83,5314,99.2779541015625,0.4559326171875,29.190673828125,350,3.5,0
491,57024,1.218,160035,1218,1,-34,2008,-458,-0.0166015625,0.98046875,-0.2236328125,7,-4,-7,0.42724609375,-0.244140625,-0.42724609375,3040,-4281,-608,18742,153,11381,102.952880859375,0.8404541015625,62.5177001953125,355,3.55,0
492,57025,1.219,160036,1219,2,-64,1912,745,-0.03125,0.93359375,0.36376953125,-23,1,17,-1.40380859375,0.06103515625,1.03759765625,-4519,-4237,1512,12508,432,-22096,68.70849609375,2.373046875,-121.376953125,358,3.58,0
493,57026,1.224,160041,1224,0,12,2002,-362,0.005859375,0.9775390625,-0.1767578125,-3,4,-2,-0.18310546875,0.244140625,-0.1220703125,3322,-3502,-5094,18073,84,5318,99.2779541015625,0.46142578125,29.212646484375,350,3.5,0
494,57027,1.225,160042,1225,1,-37,2007,-461,-0.01806640625,0.97998046875,-0.22509765625,0,-2,-8,0.0,-0.1220703125,-0.48828125,3023,-4278,-637,18741,153,11382,102.9473876953125,0.8404541015625,62.523193359375,355,3.55,0
495,57028,1.226,160043,1226,2,-65,1911,744,-0.03173828125,0.93310546875,0.36328125,-19,4,17,-1.15966796875,0.244140625,1.03759765625,-4505,-4238,1516,12507,430,-22097,68.7030029296875,2.362060546875,-121.3824462890625,358,3.58,0
496,57029,1.231,160048,1231,0,9,2000,-360,0.00439453125,0.9765625,-0.17578125,0,1,-3,0.0,0.06103515625,-0.18310546875,3338,-3497,-5107,18082,75,5320,99.327392578125,0.4119873046875,29.2236328125,350,3.5,0
497,57030,1.232,160049,1232,1,-39,1993,-456,-0.01904296875,0.97314453125,-0.22265625,-2,7,-8,-0.1220703125,0.42724609375,-0.48828125,3038,-4270,-614,18741,154,11383,102.9473876953125,0.845947265625,62.5286865234375,355,3.55,0
498,57031,1.233,160050,1233,2,-70,1910,744,-0.0341796875,0.9326171875,0.36328125,-14,4,18,-0.8544921875,0.244140625,1.0986328125,-4519,-4243,1522,12507,430,-22097,68.7030029296875,2.362060546875,-121.3824462890625,358,3.58,0
499,57032,1.241,160058,1241,0,12,1998,-356,0.005859375,0.9755859375,-0.173828125,5,11,1,0.30517578125,0.67138671875,0.06103515625,3353,-3482,-5117,18083,76,5323,99.3328857421875,0.41748046875,29.2401123046875,350,3.5,0
500,57033,1.241,160058,1241,1,-47,1984,-456,-0.02294921875,0.96875,-0.22265625,0,4,-5,0.0,0.244140625,-0.30517578125,3031,-4285,-640,18741,154,11384,102.9473876953125,0.845947265625,62.5341796875,355,3.55,0
501,57034,1.241,160058,1241,2,-82,1908,741,-0.0400390625,0.931640625,0.36181640625,-10,-3,18,-0.6103515625,-0.18310546875,1.0986328125,-4532,-4228,1507,12507,430,-22100,68.7030029296875,2.362060546875,-121.39892578125,358,3.58,0
502,57035,1.245,160062,1245,0,13,2002,-355,0.00634765625,0.9775390625,-0.17333984375,9,18,5,0.54931640625,1.0986328125,0.30517578125,3360,-3476,-5122,18084,75,5325,99.33837890625,0.4119873046875,29.2510986328125,350,3.5,0
503,57036,1.246,160063,1246,1,-51,1979,-455,-0.02490234375,0.96630859375,-0.22216796875,5,6,-3,0.30517578125,0.3662109375,-0.18310546875,3025,-4311,-612,18741,154,11385,102.9473876953125,0.845947265625,62.5396728515625,355,3.55,0
504,57037,1.247,160064,1247,2,-88,1908,738,-0.04296875,0.931640625,0.3603515625,-11,-6,19,-0.67138671875,-0.3662109375,1.15966796875,-4548,-4218,1497,12505,429,-22101,68.6920166015625,2.3565673828125,-121.4044189453125,358,3.58,0
505,57038,1.252,160069,1252,0,12,2009,-356,0.005859375,0.98095703125,-0.173828125,12,26,9,0.732421875,1.5869140625,0.54931640625,3366,-3470,-5126,18093,65,5329,99.3878173828125,0.3570556640625,29.2730712890625,350,3.5,0
506,57039,1.253,160070,1253,1,-58,1978,-457,-0.0283203125,0.9658203125,-0.22314453125,9,-4,-5,0.54931640625,-0.244140625,-0.30517578125,2985,-4292,-627,18741,155,11385,102.9473876953125,0.8514404296875,62.5396728515625,355,3.55,0
507,57040,1.254,160071,1254,2,-96,1907,731,-0.046875,0.93115234375,0.35693359375,-18,-11,18,-1.0986328125,-0.67138671875,1.0986328125,-4521,-4208,1519,12505,429,-22102,68.6920166015625,2.3565673828125,-121.409912109375,358,3.58,0
508,57041,1.259,160076,1259,0,4,2014,-366,0.001953125,0.9833984375,-0.1787109375,14,27,11,0.8544921875,1.64794921875,0.67138671875,3372,-3477,-5117,18095,64,5333,99.3988037109375,0.3515625,29.2950439453125,350,3.5,0
509,57042,1.26,160077,1260,1,-64,1977,-458,-0.03125,0.96533203125,-0.2236328125,4,-6,-4,0.244140625,-0.3662109375,-0.244140625,2973,-4272,-624,18741,155,11385,102.9473876953125,0.8514404296875,62.5396728515625,355,3.55,0
510,57043,1.261,160078,1261,2,-96,1906,729,-0.046875,0.9306640625,0.35595703125,-21,-13,17,-1.28173828125,-0.79345703125,1.03759765625,-4553,-4214,1516,12505,429,-22102,68.6920166015625,2.3565673828125,-121.409912109375,358,3.58,0
511,57044,1.266,160083,1266,0,-1,2020,-370,-0.00048828125,0.986328125,-0.1806640625,12,24,15,0.732421875,1.46484375,0.91552734375,3355,-3464,-5114,18096,64,5335,99.404296875,0.3515625,29.3060302734375,350,3.5,0
512,57045,1.277,160094,1277,1,-67,1970,-461,-0.03271484375,0.9619140625,-0.22509765625,8,-17,-3,0.48828125,-1.03759765625,-0.18310546875,2994,-4291,-608,18741,156,11384,102.9473876953125,0.85693359375,62.5341796875,355,3.55,0
513,57046,1.278,160095,1278,2,-90,1898,731,-0.0439453125,0.9267578125,0.35693359375,-18,-17,11,-1.0986328125,-1.03759765625,0.67138671875,-4559,-4186,1507,12503,429,-22103,68.6810302734375,2.3565673828125,-121.4154052734375,358,3.58,0
514,57047,1.28,160097,1280,0,-8,2012,-379,-0.00390625,0.982421875,-0.18505859375,2,3,9,0.1220703125,0.18310546875,0.54931640625,3338,-3509,-5118,18105,53,5340,99.4537353515625,0.2911376953125,29.33349609375,350,3.5,0
515,57048,1.281,160098,1281,1,-64,1969,-464,-0.03125,0.96142578125,-0.2265625,11,-31,-4,0.67138671875,-1.89208984375,-0.244140625,2990,-4303,-579,18742,157,11382,102.952880859375,0.8624267578125,62.523193359375,355,3.55,0
516,57049,1.282,160099,1282,2,-87,1896,731,-0.04248046875,0.92578125,0.35693359375,-18,-17,8,-1.0986328125,-1.03759765625,0.48828125,-4557,-4184,1475,12503,429,-22103,68.6810302734375,2.3565673828125,-121.4154052734375,358,3.58,0
517,57050,1.287,160104,1287,0,-7,2010,-377,-0.00341796875,0.9814453125,-0.18408203125,0,-7,9,0.0,-0.42724609375,0.54931640625,3345,-3492,-5114,18106,53,5340,99.459228515625,0.2911376953125,29.33349609375,350,3.5,0
518,57051,1.288,160105,1288,1,-50,1973,-467,-0.0244140625,0.96337890625,-0.22802734375,15,-43,-7,0.91552734375,-2.62451171875,-0.42724609375,2970,-4300,-598,18743,159,11378,102.9583740234375,0.8734130859375,62.501220703125,356,3.56,0
519,57052,1.289,160106,1289,2,-84,1895,731,-0.041015625,0.92529296875,0.35693359375,-22,-20,6,-1.3427734375,-1.220703125,0.3662109375,-4556,-4172,1474,12502,429,-22104,68.675537109375,2.3565673828125,-121.4208984375,358,3.58,0
520,57053,1.294,160111,1294,0,-16,2003,-377,-0.0078125,0.97802734375,-0.18408203125,0,-18,5,0.0,-1.0986328125,0.30517578125,3324,-3499,-5143,18114,45,5341,99.503173828125,0.2471923828125,29.3389892578125,350,3.5,0
521,57054,1.295,160112,1295,1,-50,1971,-463,-0.0244140625,0.96240234375,-0.22607421875,13,-48,-5,0.79345703125,-2.9296875,-0.30517578125,2962,-4306,-598,18744,160,11376,102.9638671875,0.87890625,62.490234375,356,3.56,0
522,57055,1.296,160113,1296,2,-79,1894,737,-0.03857421875,0.9248046875,0.35986328125,-25,-21,3,-1.52587890625,-1.28173828125,0.18310546875,-4585,-4162,1548,12502,429,-22104,68.675537109375,2.3565673828125,-121.4208984375,358,3.58,0
523,57056,1.301,160118,1301,0,-20,1998,-371,-0.009765625,0.9755859375,-0.18115234375,-5,-26,6,-0.30517578125,-1.5869140625,0.3662109375,3309,-3506,-5115,18114,45,5340,99.503173828125,0.2471923828125,29.33349609375,351,3.51,0
524,57057,1.303,160120,1303,2,-78,1895,741,-0.0380859375,0.92529296875,0.36181640625,-19,-22,1,-1.15966796875,-1.3427734375,0.06103515625,-4569,-4163,1566,12502,429,-22104,68.675537109375,2.3565673828125,-121.4208984375,357,3.57,0
525,57058,1.308,160125,1308,0,-20,1998,-371,-0.009765625,0.9755859375,-0.18115234375,-5,-26,6,-0.30517578125,-1.5869140625,0.3662109375,3309,-3506,-5115,18114,45,5340,99.503173828125,0.2471923828125,29.33349609375,351,3.51,0
526,57059,1.309,160126,1309,1,-41,1984,-467,-0.02001953125,0.96875,-0.22802734375,20,-37,-7,1.220703125,-2.25830078125,-0.42724609375,2979,-4279,-607,18746,162,11371,102.974853515625,0.889892578125,62.4627685546875,357,3.57,0
527,57060,1.31,160127,1310,2,-74,1903,743,-0.0361328125,0.92919921875,0.36279296875,-17,-23,1,-1.03759765625,-1.40380859375,0.06103515625,-4543,-4141,1606,12500,428,-22105,68.66455078125,2.35107421875,-121.4263916015625,357,3.57,0
528,57061,1.315,160132,1315,0,-26,2008,-366,-0.0126953125,0.98046875,-0.1787109375,-10,-42,13,-0.6103515625,-2.5634765625,0.79345703125,3313,-3496,-5141,18121,39,5337,99.5416259765625,0.2142333984375,29.3170166015625,351,3.51,0
529,57062,1.316,160133,1316,1,-42,1991,-466,-0.0205078125,0.97216796875,-0.2275390625,20,-36,-6,1.220703125,-2.197265625,-0.3662109375,2974,-4261,-585,18747,163,11370,102.9803466796875,0.8953857421875,62.457275390625,357,3.57,0
530,57063,1.317,160134,1317,2,-74,1907,741,-0.0361328125,0.93115234375,0.36181640625,-18,-22,1,-1.0986328125,-1.3427734375,0.06103515625,-4530,-4139,1621,12500,428,-22108,68.66455078125,2.35107421875,-121.44287109375,357,3.57,0
531,57064,1.322,160139,1322,0,-24,2008,-366,-0.01171875,0.98046875,-0.1787109375,-10,-43,13,-0.6103515625,-2.62451171875,0.79345703125,3294,-3506,-5131,18121,39,5335,99.5416259765625,0.2142333984375,29.3060302734375,351,3.51,0
532,57065,1.323,160140,1323,1,-38,1995,-468,-0.0185546875,0.97412109375,-0.228515625,19,-39,-5,1.15966796875,-2.38037109375,-0.30517578125,2969,-4261,-596,18748,164,11366,102.98583984375,0.90087890625,62.435302734375,358,3.58,0
