record_index,sequence,time_s,tick_ms,tick_elapsed_ms,device_id,accel_x_raw,accel_y_raw,accel_z_raw,accel_x_g,accel_y_g,accel_z_g,gyro_x_raw,gyro_y_raw,gyro_z_raw,gyro_x_dps,gyro_y_dps,gyro_z_dps,mag_x_raw,mag_y_raw,mag_z_raw,angle_x_raw,angle_y_raw,angle_z_raw,angle_x_deg,angle_y_deg,angle_z_deg,battery_raw,battery_voltage,sequence_gap_before
0,31427,0.0,89903,0,0,-4,2066,-229,-0.001953125,1.0087890625,-0.11181640625,29,-168,-8,1.77001953125,-10.25390625,-0.48828125,-5236,1465,-2001,17974,281,-12800,98.734130859375,1.5435791015625,-70.3125,351,3.51,0
1,31428,0.0,89903,0,1,-73,2010,-386,-0.03564453125,0.9814453125,-0.1884765625,4,-41,-19,0.244140625,-2.50244140625,-1.15966796875,-1133,934,5731,18485,351,-30897,101.5411376953125,1.9281005859375,-169.7222900390625,356,3.56,0
2,31429,0.01,89913,10,1,-71,1980,-415,-0.03466796875,0.966796875,-0.20263671875,27,5,-10,1.64794921875,0.30517578125,-0.6103515625,-1151,918,5861,18458,334,-30950,101.392822265625,1.834716796875,-170.013427734375,356,3.56,0
3,31430,0.01,89913,10,0,-18,1990,-365,-0.0087890625,0.9716796875,-0.17822265625,19,-80,4,1.15966796875,-4.8828125,0.244140625,-5201,1413,-2099,17988,313,-12782,98.81103515625,1.7193603515625,-70.213623046875,351,3.51,0
4,31431,0.011,89914,11,1,-76,1980,-415,-0.037109375,0.966796875,-0.20263671875,33,2,-10,2.01416015625,0.1220703125,-0.6103515625,-1163,895,5836,18460,334,-30950,101.40380859375,1.834716796875,-170.013427734375,356,3.56,0
5,31432,0.017,89920,17,0,-13,1991,-359,-0.00634765625,0.97216796875,-0.17529296875,26,-78,4,1.5869140625,-4.7607421875,0.244140625,-5212,1423,-2084,17989,314,-12786,98.8165283203125,1.724853515625,-70.235595703125,351,3.51,0
6,31433,0.018,89921,18,1,-76,1985,-417,-0.037109375,0.96923828125,-0.20361328125,34,3,-11,2.0751953125,0.18310546875,-0.67138671875,-1155,889,5837,18462,335,-30949,101.414794921875,1.8402099609375,-170.0079345703125,356,3.56,0
7,31434,0.019,89922,19,2,-16,1931,677,-0.0078125,0.94287109375,0.33056640625,-23,4,5,-1.40380859375,0.244140625,0.30517578125,1447,2064,-3837,12592,144,3297,69.169921875,0.791015625,18.1109619140625,355,3.55,0
8,31435,0.024,89927,24,0,-5,1991,-355,-0.00244140625,0.97216796875,-0.17333984375,30,-72,9,1.8310546875,-4.39453125,0.54931640625,-5213,1407,-2068,17992,314,-12789,98.8330078125,1.724853515625,-70.2520751953125,351,3.51,0
9,31436,0.025,89928,25,1,-75,1994,-418,-0.03662109375,0.9736328125,-0.2041015625,36,0,-14,2.197265625,0.0,-0.8544921875,-1108,895,5848,18465,337,-30948,101.4312744140625,1.8511962890625,-170.00244140625,356,3.56,0
10,31437,0.026,89929,26,2,-17,1931,680,-0.00830078125,0.94287109375,0.33203125,-25,5,4,-1.52587890625,0.30517578125,0.244140625,1439,2072,-3844,12592,144,3297,69.169921875,0.791015625,18.1109619140625,355,3.55,0
11,31438,0.031,89934,31,0,4,2002,-348,0.001953125,0.9775390625,-0.169921875,45,-51,17,2.74658203125,-3.11279296875,1.03759765625,-5191,1388,-2087,17997,314,-12793,98.8604736328125,1.724853515625,-70.2740478515625,351,3.51,0
12,31439,0.032,89935,32,1,-77,1991,-414,-0.03759765625,0.97216796875,-0.2021484375,32,4,-13,1.953125,0.244140625,-0.79345703125,-1120,892,5854,18467,337,-30947,101.4422607421875,1.8511962890625,-169.9969482421875,356,3.56,0
13,31440,0.033,89936,33,2,-19,1933,683,-0.00927734375,0.94384765625,0.33349609375,-37,2,3,-2.25830078125,0.1220703125,0.18310546875,1409,2066,-3885,12592,144,3298,69.169921875,0.791015625,18.116455078125,355,3.55,0
14,31441,0.038,89941,38,0,4,2009,-337,0.001953125,0.98095703125,-0.16455078125,50,-40,17,3.0517578125,-2.44140625,1.03759765625,-5190,1390,-2102,18000,314,-12795,98.876953125,1.724853515625,-70.2850341796875,351,3.51,0
15,31442,0.039,89942,39,1,-81,1991,-410,-0.03955078125,0.97216796875,-0.2001953125,34,5,-12,2.0751953125,0.30517578125,-0.732421875,-1130,915,5837,18470,339,-30946,101.458740234375,1.8621826171875,-169.991455078125,356,3.56,0
16,31443,0.04,89943,40,2,-20,1935,684,-0.009765625,0.94482421875,0.333984375,-41,1,3,-2.50244140625,0.06103515625,0.18310546875,1409,2086,-3935,12593,144,3298,69.1754150390625,0.791015625,18.116455078125,355,3.55,0
17,31444,0.045,89948,45,0,4,2009,-337,0.001953125,0.98095703125,-0.16455078125,50,-40,17,3.0517578125,-2.44140625,1.03759765625,-5190,1390,-2102,18000,314,-12795,98.876953125,1.724853515625,-70.2850341796875,351,3.51,0
18,31445,0.046,89949,46,1,-80,1991,-405,-0.0390625,0.97216796875,-0.19775390625,34,5,-13,2.0751953125,0.30517578125,-0.79345703125,-1094,951,5843,18472,339,-30945,101.4697265625,1.8621826171875,-169.9859619140625,356,3.56,0
19,31446,0.047,89950,47,2,-18,1936,683,-0.0087890625,0.9453125,0.33349609375,-46,1,5,-2.8076171875,0.06103515625,0.30517578125,1409,2044,-3949,12593,144,3297,69.1754150390625,0.791015625,18.1109619140625,355,3.55,0
20,31447,0.052,89955,52,0,-1,2024,-318,-0.00048828125,0.98828125,-0.1552734375,40,-13,24,2.44140625,-0.79345703125,1.46484375,-5227,1404,-2034,18008,311,-12796,98.9208984375,1.7083740234375,-70.29052734375,351,3.51,0
21,31448,0.053,89956,53,1,-84,1992,-407,-0.041015625,0.97265625,-0.19873046875,38,3,-13,2.3193359375,0.18310546875,-0.79345703125,-1107,943,5859,18474,340,-30944,101.480712890625,1.86767578125,-169.98046875,356,3.56,0
22,31449,0.054,89957,54,2,-16,1936,684,-0.0078125,0.9453125,0.333984375,-46,4,5,-2.8076171875,0.244140625,0.30517578125,1409,2035,-3970,12593,144,3297,69.1754150390625,0.791015625,18.1109619140625,355,3.55,0
23,31450,0.059,89962,59,0,-6,2027,-311,-0.0029296875,0.98974609375,-0.15185546875,36,-9,24,2.197265625,-0.54931640625,1.46484375,-5221,1412,-2010,18010,310,-12796,98.931884765625,1.702880859375,-70.29052734375,351,3.51,0
24,31451,0.06,89963,60,1,-76,1990,-391,-0.037109375,0.9716796875,-0.19091796875,38,6,-12,2.3193359375,0.3662109375,-0.732421875,-1102,930,5864,18478,341,-30943,101.502685546875,1.8731689453125,-169.9749755859375,356,3.56,0
25,31452,0.061,89964,61,2,-14,1935,685,-0.0068359375,0.94482421875,0.33447265625,-43,5,5,-2.62451171875,0.30517578125,0.30517578125,1388,2073,-3987,12594,144,3297,69.180908203125,0.791015625,18.1109619140625,355,3.55,0
26,31453,0.066,89969,66,0,-23,2033,-304,-0.01123046875,0.99267578125,-0.1484375,23,-3,23,1.40380859375,-0.18310546875,1.40380859375,-5204,1436,-2021,18013,308,-12795,98.9483642578125,1.69189453125,-70.2850341796875,351,3.51,0
27,31454,0.076,89979,76,1,-67,1982,-382,-0.03271484375,0.9677734375,-0.1865234375,42,9,-13,2.5634765625,0.54931640625,-0.79345703125,-1099,933,5827,18480,342,-30941,101.513671875,1.878662109375,-169.9639892578125,356,3.56,0
28,31455,0.076,89979,76,2,-9,1935,688,-0.00439453125,0.94482421875,0.3359375,-37,9,5,-2.25830078125,0.54931640625,0.30517578125,1391,2083,-3966,12594,144,3297,69.180908203125,0.791015625,18.1109619140625,355,3.55,0
29,31456,0.08,89983,80,0,-26,2032,-308,-0.0126953125,0.9921875,-0.150390625,21,-5,21,1.28173828125,-0.30517578125,1.28173828125,-5232,1440,-2020,18015,307,-12794,98.9593505859375,1.6864013671875,-70.279541015625,351,3.51,0
30,31457,0.081,89984,81,1,-64,1989,-393,-0.03125,0.97119140625,-0.19189453125,50,13,-20,3.0517578125,0.79345703125,-1.220703125,-1131,954,5736,18487,345,-30938,101.5521240234375,1.8951416015625,-169.947509765625,355,3.55,0
31,31458,0.082,89985,82,2,-8,1938,689,-0.00390625,0.9462890625,0.33642578125,-34,19,4,-2.0751953125,1.15966796875,0.244140625,1433,2061,-3953,12595,143,3297,69.1864013671875,0.7855224609375,18.1109619140625,355,3.55,0
32,31459,0.087,89990,87,0,-52,2029,-310,-0.025390625,0.99072265625,-0.1513671875,29,-7,18,1.77001953125,-0.42724609375,1.0986328125,-5233,1444,-1997,18020,305,-12794,98.98681640625,1.6754150390625,-70.279541015625,350,3.5,0
33,31460,0.088,89991,88,1,-61,1989,-404,-0.02978515625,0.97119140625,-0.197265625,51,6,-22,3.11279296875,0.3662109375,-1.3427734375,-1142,953,5730,18490,346,-30937,101.568603515625,1.900634765625,-169.9420166015625,355,3.55,0
34,31461,0.089,89992,89,2,-9,1938,689,-0.00439453125,0.9462890625,0.33642578125,-34,20,4,-2.0751953125,1.220703125,0.244140625,1415,2102,-3942,12595,143,3297,69.1864013671875,0.7855224609375,18.1109619140625,356,3.56,0
35,31462,0.094,89997,94,0,-61,2031,-316,-0.02978515625,0.99169921875,-0.154296875,29,-10,16,1.77001953125,-0.6103515625,0.9765625,-5240,1436,-1997,18022,304,-12794,98.997802734375,1.669921875,-70.279541015625,350,3.5,0
36,31463,0.095,89998,95,1,-49,1988,-413,-0.02392578125,0.970703125,-0.20166015625,54,3,-26,3.2958984375,0.18310546875,-1.5869140625,-1151,923,5766,18495,349,-30935,101.5960693359375,1.9171142578125,-169.9310302734375,355,3.55,0
37,31464,0.096,89999,96,2,-9,1938,690,-0.00439453125,0.9462890625,0.3369140625,-35,22,5,-2.13623046875,1.3427734375,0.30517578125,1400,2076,-3934,12595,143,3297,69.1864013671875,0.7855224609375,18.1109619140625,356,3.56,0
38,31465,0.101,90004,101,0,-73,2036,-324,-0.03564453125,0.994140625,-0.158203125,15,-21,12,0.91552734375,-1.28173828125,0.732421875,-5256,1439,-1994,18025,304,-12794,99.0142822265625,1.669921875,-70.279541015625,350,3.5,0
39,31466,0.108,90011,108,0,-71,2037,-324,-0.03466796875,0.99462890625,-0.158203125,6,-26,10,0.3662109375,-1.5869140625,0.6103515625,-5252,1455,-1990,18025,304,-12795,99.0142822265625,1.669921875,-70.2850341796875,350,3.5,0
40,31467,0.109,90012,109,1,-38,1995,-425,-0.0185546875,0.97412109375,-0.20751953125,61,3,-26,3.72314453125,0.18310546875,-1.5869140625,-1176,925,5748,18502,352,-30933,101.634521484375,1.93359375,-169.9200439453125,355,3.55,0
41,31468,0.11,90013,110,2,-8,1933,698,-0.00390625,0.94384765625,0.3408203125,-42,26,7,-2.5634765625,1.5869140625,0.42724609375,1409,2050,-3877,12595,143,3297,69.1864013671875,0.7855224609375,18.1109619140625,356,3.56,0
42,31469,0.115,90018,115,0,-66,2040,-325,-0.0322265625,0.99609375,-0.15869140625,2,-26,7,0.1220703125,-1.5869140625,0.42724609375,-5240,1466,-2006,18026,304,-12796,99.019775390625,1.669921875,-70.29052734375,350,3.5,0
43,31470,0.116,90019,116,1,-31,2001,-433,-0.01513671875,0.97705078125,-0.21142578125,60,4,-25,3.662109375,0.244140625,-1.52587890625,-1195,898,5729,18508,354,-30932,101.66748046875,1.944580078125,-169.91455078125,355,3.55,0
44,31471,0.117,90020,117,2,-12,1926,708,-0.005859375,0.9404296875,0.345703125,-48,34,9,-2.9296875,2.0751953125,0.54931640625,1430,2025,-3923,12596,142,3297,69.19189453125,0.780029296875,18.1109619140625,356,3.56,0
45,31472,0.122,90025,122,0,-57,2041,-314,-0.02783203125,0.99658203125,-0.1533203125,-6,-11,6,-0.3662109375,-0.67138671875,0.3662109375,-5240,1457,-2000,18026,304,-12796,99.019775390625,1.669921875,-70.29052734375,350,3.5,0
46,31473,0.123,90026,123,1,-26,2004,-433,-0.0126953125,0.978515625,-0.21142578125,60,5,-23,3.662109375,0.30517578125,-1.40380859375,-1149,903,5748,18509,350,-30931,101.6729736328125,1.922607421875,-169.9090576171875,355,3.55,0
47,31474,0.124,90027,124,2,-14,1921,713,-0.0068359375,0.93798828125,0.34814453125,-45,37,9,-2.74658203125,2.25830078125,0.54931640625,1439,2001,-3992,12596,142,3297,69.19189453125,0.780029296875,18.1109619140625,356,3.56,0
48,31475,0.129,90032,129,0,-54,2044,-308,-0.0263671875,0.998046875,-0.150390625,-6,3,5,-0.3662109375,0.18310546875,0.30517578125,-5247,1434,-2020,18026,304,-12794,99.019775390625,1.669921875,-70.279541015625,350,3.5,0
49,31476,0.13,90033,130,1,-23,2021,-428,-0.01123046875,0.98681640625,-0.208984375,62,7,-20,3.7841796875,0.42724609375,-1.220703125,-1141,894,5785,18509,350,-30931,101.6729736328125,1.922607421875,-169.9090576171875,355,3.55,0
50,31477,0.136,90039,136,2,-17,1917,717,-0.00830078125,0.93603515625,0.35009765625,-38,38,10,-2.3193359375,2.3193359375,0.6103515625,1433,2022,-3954,12596,142,3297,69.19189453125,0.780029296875,18.1109619140625,356,3.56,0
51,31478,0.136,90039,136,0,-50,2047,-303,-0.0244140625,0.99951171875,-0.14794921875,-11,22,2,-0.67138671875,1.3427734375,0.1220703125,-5220,1427,-1973,18025,304,-12791,99.0142822265625,1.669921875,-70.2630615234375,350,3.5,0
52,31479,0.137,90040,137,1,-21,2028,-421,-0.01025390625,0.990234375,-0.20556640625,58,8,-21,3.5400390625,0.48828125,-1.28173828125,-1112,907,5766,18509,350,-30931,101.6729736328125,1.922607421875,-169.9090576171875,355,3.55,0
53,31480,0.138,90041,138,2,-21,1914,719,-0.01025390625,0.9345703125,0.35107421875,-30,37,10,-1.8310546875,2.25830078125,0.6103515625,1426,2088,-3949,12596,142,3297,69.19189453125,0.780029296875,18.1109619140625,356,3.56,0
54,31481,0.143,90046,143,0,-53,2050,-301,-0.02587890625,1.0009765625,-0.14697265625,-13,27,5,-0.79345703125,1.64794921875,0.30517578125,-5217,1413,-1981,18025,303,-12788,99.0142822265625,1.6644287109375,-70.24658203125,350,3.5,0
55,31482,0.144,90047,144,1,-12,2030,-412,-0.005859375,0.9912109375,-0.201171875,53,14,-19,3.23486328125,0.8544921875,-1.15966796875,-1107,920,5756,18509,349,-30931,101.6729736328125,1.9171142578125,-169.9090576171875,355,3.55,0
56,31483,0.145,90048,145,2,-22,1913,719,-0.0107421875,0.93408203125,0.35107421875,-31,38,10,-1.89208984375,2.3193359375,0.6103515625,1437,2110,-3936,12596,142,3297,69.19189453125,0.780029296875,18.1109619140625,356,3.56,0
57,31484,0.15,90053,150,0,-59,2049,-294,-0.02880859375,1.00048828125,-0.1435546875,-12,28,2,-0.732421875,1.708984375,0.1220703125,-5234,1443,-1984,18024,303,-12786,99.0087890625,1.6644287109375,-70.235595703125,350,3.5,0
58,31485,0.151,90054,151,1,-5,2033,-384,-0.00244140625,0.99267578125,-0.1875,37,42,-18,2.25830078125,2.5634765625,-1.0986328125,-1091,907,5792,18509,349,-30931,101.6729736328125,1.9171142578125,-169.9090576171875,355,3.55,0
59,31486,0.152,90055,152,2,-28,1913,723,-0.013671875,0.93408203125,0.35302734375,-27,40,9,-1.64794921875,2.44140625,0.54931640625,1435,2125,-3924,12596,142,3297,69.19189453125,0.780029296875,18.1109619140625,356,3.56,0
60,31487,0.157,90060,157,0,-78,2040,-304,-0.0380859375,0.99609375,-0.1484375,-21,23,-2,-1.28173828125,1.40380859375,-0.1220703125,-5243,1438,-1974,18023,303,-12782,99.0032958984375,1.6644287109375,-70.213623046875,350,3.5,0
61,31488,0.158,90061,158,1,-6,2030,-384,-0.0029296875,0.9912109375,-0.1875,27,57,-14,1.64794921875,3.47900390625,-0.8544921875,-1103,927,5804,18509,349,-30931,101.6729736328125,1.9171142578125,-169.9090576171875,355,3.55,0
62,31489,0.159,90062,159,2,-31,1912,725,-0.01513671875,0.93359375,0.35400390625,-20,39,8,-1.220703125,2.38037109375,0.48828125,1442,2101,-3887,12596,142,3297,69.19189453125,0.780029296875,18.1109619140625,356,3.56,0
63,31490,0.164,90067,164,0,-83,2031,-307,-0.04052734375,0.99169921875,-0.14990234375,-22,17,-4,-1.3427734375,1.03759765625,-0.244140625,-5243,1429,-1976,18022,304,-12780,98.997802734375,1.669921875,-70.20263671875,350,3.5,0
64,31491,0.176,90079,176,1,-20,2018,-375,-0.009765625,0.9853515625,-0.18310546875,10,61,-9,0.6103515625,3.72314453125,-0.54931640625,-1087,939,5787,18508,348,-30931,101.66748046875,1.91162109375,-169.9090576171875,355,3.55,0
65,31492,0.176,90079,176,2,-37,1912,724,-0.01806640625,0.93359375,0.353515625,-10,38,7,-0.6103515625,2.3193359375,0.42724609375,1458,2159,-3890,12596,142,3297,69.19189453125,0.780029296875,18.1109619140625,356,3.56,0
66,31493,0.178,90081,178,0,-68,2011,-323,-0.033203125,0.98193359375,-0.15771484375,-17,2,-15,-1.03759765625,0.1220703125,-0.91552734375,-5245,1407,-1981,18020,307,-12776,98.98681640625,1.6864013671875,-70.1806640625,349,3.49,0
67,31494,0.179,90082,179,1,-29,2016,-379,-0.01416015625,0.984375,-0.18505859375,13,53,-8,0.79345703125,3.23486328125,-0.48828125,-1080,953,5767,18508,348,-30931,101.66748046875,1.91162109375,-169.9090576171875,355,3.55,0
68,31495,0.18,90083,180,2,-36,1912,724,-0.017578125,0.93359375,0.353515625,-8,40,5,-0.48828125,2.44140625,0.30517578125,1476,2160,-3880,12595,142,3297,69.1864013671875,0.780029296875,18.1109619140625,357,3.57,0
69,31496,0.185,90088,185,0,-59,2006,-329,-0.02880859375,0.9794921875,-0.16064453125,-14,14,-17,-0.8544921875,0.8544921875,-1.03759765625,-5246,1402,-1983,18020,308,-12774,98.98681640625,1.69189453125,-70.169677734375,349,3.49,0
70,31497,0.186,90089,186,1,-42,2010,-381,-0.0205078125,0.9814453125,-0.18603515625,14,39,-1,0.8544921875,2.38037109375,-0.06103515625,-1095,948,5790,18508,347,-30929,101.66748046875,1.9061279296875,-169.8980712890625,355,3.55,0
71,31498,0.187,90090,187,2,-36,1910,725,-0.017578125,0.9326171875,0.35400390625,-4,43,5,-0.244140625,2.62451171875,0.30517578125,1454,2196,-3870,12595,142,3297,69.1864013671875,0.780029296875,18.1109619140625,357,3.57,0
72,31499,0.192,90095,192,0,-41,2010,-344,-0.02001953125,0.9814453125,-0.16796875,4,40,-16,0.244140625,2.44140625,-0.9765625,-5238,1423,-2051,18021,309,-12769,98.9923095703125,1.6973876953125,-70.1422119140625,349,3.49,0
73,31500,0.193,90096,193,1,-43,2009,-387,-0.02099609375,0.98095703125,-0.18896484375,12,34,0,0.732421875,2.0751953125,0.0,-1106,933,5805,18509,346,-30927,101.6729736328125,1.900634765625,-169.8870849609375,355,3.55,0
74,31501,0.199,90102,199,0,-38,2010,-351,-0.0185546875,0.9814453125,-0.17138671875,10,41,-18,0.6103515625,2.50244140625,-1.0986328125,-5236,1416,-2033,18022,310,-12765,98.997802734375,1.702880859375,-70.1202392578125,349,3.49,0
75,31502,0.2,90103,200,1,-46,1993,-390,-0.0224609375,0.97314453125,-0.1904296875,9,25,3,0.54931640625,1.52587890625,0.18310546875,-1109,938,5836,18509,346,-30923,101.6729736328125,1.900634765625,-169.8651123046875,355,3.55,0
76,31503,0.201,90104,201,2,-39,1904,725,-0.01904296875,0.9296875,0.35400390625,7,47,6,0.42724609375,2.86865234375,0.3662109375,1416,2228,-3902,12595,142,3297,69.1864013671875,0.780029296875,18.1109619140625,357,3.57,0
77,31504,0.206,90109,206,0,-38,2010,-351,-0.0185546875,0.9814453125,-0.17138671875,10,41,-18,0.6103515625,2.50244140625,-1.0986328125,-5236,1416,-2033,18022,310,-12765,98.997802734375,1.702880859375,-70.1202392578125,349,3.49,0
78,31505,0.207,90110,207,1,-44,1987,-398,-0.021484375,0.97021484375,-0.1943359375,14,18,6,0.8544921875,1.0986328125,0.3662109375,-1097,937,5848,18510,345,-30922,101.678466796875,1.8951416015625,-169.859619140625,355,3.55,0
79,31506,0.208,90111,208,2,-43,1904,719,-0.02099609375,0.9296875,0.35107421875,7,48,5,0.42724609375,2.9296875,0.30517578125,1408,2167,-3900,12595,142,3297,69.1864013671875,0.780029296875,18.1109619140625,357,3.57,0
80,31507,0.213,90116,213,0,-18,2011,-350,-0.0087890625,0.98193359375,-0.1708984375,-1,30,-20,-0.06103515625,1.8310546875,-1.220703125,-5214,1430,-2017,18024,313,-12757,99.0087890625,1.7193603515625,-70.0762939453125,349,3.49,0
81,31508,0.214,90117,214,1,-42,1983,-402,-0.0205078125,0.96826171875,-0.1962890625,19,14,4,1.15966796875,0.8544921875,0.244140625,-1089,958,5854,18511,345,-30921,101.6839599609375,1.8951416015625,-169.8541259765625,355,3.55,0
82,31509,0.215,90118,215,2,-45,1905,716,-0.02197265625,0.93017578125,0.349609375,2,47,6,0.1220703125,2.86865234375,0.3662109375,1398,2172,-3868,12595,142,3297,69.1864013671875,0.780029296875,18.1109619140625,357,3.57,0
83,31510,0.22,90123,220,0,-14,2010,-346,-0.0068359375,0.9814453125,-0.1689453125,-6,32,-16,-0.3662109375,1.953125,-0.9765625,-5207,1431,-2027,18024,314,-12754,99.0087890625,1.724853515625,-70.059814453125,349,3.49,0
84,31511,0.221,90124,221,1,-51,1991,-416,-0.02490234375,0.97216796875,-0.203125,26,-1,3,1.5869140625,-0.06103515625,0.18310546875,-1099,952,5885,18513,345,-30920,101.6949462890625,1.8951416015625,-169.8486328125,355,3.55,0
85,31512,0.222,90125,222,2,-46,1906,713,-0.0224609375,0.9306640625,0.34814453125,-1,47,7,-0.06103515625,2.86865234375,0.42724609375,1402,2196,-3806,12594,142,3297,69.180908203125,0.780029296875,18.1109619140625,357,3.57,0
86,31513,0.227,90130,227,0,-7,2008,-339,-0.00341796875,0.98046875,-0.16552734375,-14,39,-14,-0.8544921875,2.38037109375,-0.8544921875,-5223,1432,-1972,18023,315,-12748,99.0032958984375,1.7303466796875,-70.02685546875,349,3.49,0
87,31514,0.234,90137,234,1,-55,1995,-422,-0.02685546875,0.97412109375,-0.2060546875,28,-10,0,1.708984375,-0.6103515625,0.0,-1108,949,5882,18515,345,-30921,101.7059326171875,1.8951416015625,-169.8541259765625,355,3.55,0
88,31515,0.234,90137,234,2,-43,1906,708,-0.02099609375,0.9306640625,0.345703125,-2,49,10,-0.1220703125,2.99072265625,0.6103515625,1428,2166,-3828,12594,142,3297,69.180908203125,0.780029296875,18.1109619140625,357,3.57,0
89,31516,0.234,90137,234,0,0,2004,-336,0.0,0.978515625,-0.1640625,-20,39,-13,-1.220703125,2.38037109375,-0.79345703125,-5214,1425,-1998,18022,315,-12745,98.997802734375,1.7303466796875,-70.0103759765625,349,3.49,0
90,31517,0.235,90138,235,1,-67,2008,-431,-0.03271484375,0.98046875,-0.21044921875,31,-21,-7,1.89208984375,-1.28173828125,-0.42724609375,-1122,932,5864,18517,346,-30922,101.7169189453125,1.900634765625,-169.859619140625,355,3.55,0
91,31518,0.236,90139,236,2,-40,1908,706,-0.01953125,0.931640625,0.3447265625,0,50,11,0.0,3.0517578125,0.67138671875,1430,2159,-3833,12594,142,3297,69.180908203125,0.780029296875,18.1109619140625,357,3.57,0
92,31519,0.241,90144,241,0,5,2007,-334,0.00244140625,0.97998046875,-0.1630859375,-25,36,-9,-1.52587890625,2.197265625,-0.54931640625,-5202,1417,-1967,18021,316,-12742,98.9923095703125,1.73583984375,-69.993896484375,349,3.49,0
93,31520,0.242,90145,242,1,-70,2005,-428,-0.0341796875,0.97900390625,-0.208984375,22,-19,-8,1.3427734375,-1.15966796875,-0.48828125,-1131,948,5830,18518,347,-30922,101.722412109375,1.9061279296875,-169.859619140625,355,3.55,0
94,31521,0.243,90146,243,2,-32,1914,702,-0.015625,0.9345703125,0.3427734375,-2,48,13,-0.1220703125,2.9296875,0.79345703125,1451,2148,-3883,12594,142,3297,69.180908203125,0.780029296875,18.1109619140625,357,3.57,0
95,31522,0.248,90151,248,0,11,2016,-338,0.00537109375,0.984375,-0.1650390625,-28,28,-3,-1.708984375,1.708984375,-0.18310546875,-5246,1440,-2022,18019,316,-12737,98.9813232421875,1.73583984375,-69.9664306640625,348,3.48,0
96,31523,0.249,90152,249,1,-74,2000,-425,-0.0361328125,0.9765625,-0.20751953125,17,-14,-7,1.03759765625,-0.8544921875,-0.42724609375,-1112,960,5783,18519,347,-30922,101.7279052734375,1.9061279296875,-169.859619140625,355,3.55,0
97,31524,0.25,90153,250,2,-28,1917,701,-0.013671875,0.93603515625,0.34228515625,-6,50,15,-0.3662109375,3.0517578125,0.91552734375,1429,2133,-3904,12594,142,3297,69.180908203125,0.780029296875,18.1109619140625,357,3.57,0
98,31525,0.255,90158,255,0,14,2020,-339,0.0068359375,0.986328125,-0.16552734375,-28,21,-2,-1.708984375,1.28173828125,-0.1220703125,-5241,1439,-2001,18018,316,-12735,98.975830078125,1.73583984375,-69.9554443359375,348,3.48,0
99,31526,0.256,90159,256,1,-72,1979,-423,-0.03515625,0.96630859375,-0.20654296875,0,13,-11,0.0,0.79345703125,-0.67138671875,-1145,981,5777,18519,348,-30920,101.7279052734375,1.91162109375,-169.8486328125,355,3.55,0
100,31527,0.262,90165,262,0,15,2018,-337,0.00732421875,0.9853515625,-0.16455078125,-27,20,-1,-1.64794921875,1.220703125,-0.06103515625,-5267,1465,-2039,18016,316,-12731,98.96484375,1.73583984375,-69.9334716796875,349,3.49,0
101,31528,0.263,90166,263,1,-67,1968,-425,-0.03271484375,0.9609375,-0.20751953125,-3,28,-10,-0.18310546875,1.708984375,-0.6103515625,-1164,971,5796,18518,348,-30917,101.722412109375,1.91162109375,-169.8321533203125,355,3.55,0
102,31529,0.269,90172,269,0,17,2018,-341,0.00830078125,0.9853515625,-0.16650390625,-27,21,2,-1.64794921875,1.28173828125,0.1220703125,-5254,1454,-2016,18014,316,-12729,98.953857421875,1.73583984375,-69.9224853515625,349,3.49,0
103,31530,0.27,90173,270,1,-67,1961,-430,-0.03271484375,0.95751953125,-0.2099609375,9,38,-12,0.54931640625,2.3193359375,-0.732421875,-1175,958,5802,18519,349,-30915,101.7279052734375,1.9171142578125,-169.8211669921875,355,3.55,0
104,31531,0.271,90174,271,2,-25,1926,701,-0.01220703125,0.9404296875,0.34228515625,4,59,20,0.244140625,3.60107421875,1.220703125,1386,2225,-3976,12594,142,3297,69.180908203125,0.780029296875,18.1109619140625,357,3.57,0
105,31532,0.276,90179,276,0,10,2013,-342,0.0048828125,0.98291015625,-0.1669921875,-29,25,6,-1.77001953125,1.52587890625,0.3662109375,-5264,1461,-2033,18013,316,-12727,98.9483642578125,1.73583984375,-69.9114990234375,350,3.5,0
106,31533,0.277,90180,277,1,-59,1960,-433,-0.02880859375,0.95703125,-0.21142578125,25,38,-13,1.52587890625,2.3193359375,-0.79345703125,-1182,951,5839,18521,349,-30910,101.7388916015625,1.9171142578125,-169.793701171875,355,3.55,0
107,31534,0.283,90186,283,0,-2,1999,-351,-0.0009765625,0.97607421875,-0.17138671875,-27,30,10,-1.64794921875,1.8310546875,0.6103515625,-5264,1452,-2021,18011,315,-12722,98.9373779296875,1.7303466796875,-69.884033203125,351,3.51,0
108,31535,0.284,90187,284,1,-52,1961,-429,-0.025390625,0.95751953125,-0.20947265625,27,32,-16,1.64794921875,1.953125,-0.9765625,-1170,947,5845,18523,350,-30908,101.7498779296875,1.922607421875,-169.78271484375,355,3.55,0
109,31536,0.29,90193,290,0,-8,1992,-357,-0.00390625,0.97265625,-0.17431640625,-20,40,14,-1.220703125,2.44140625,0.8544921875,-5261,1427,-1999,18010,314,-12719,98.931884765625,1.724853515625,-69.8675537109375,351,3.51,0
110,31537,0.291,90194,291,1,-41,1973,-434,-0.02001953125,0.96337890625,-0.2119140625,36,28,-18,2.197265625,1.708984375,-1.0986328125,-1186,962,5874,18526,351,-30903,101.766357421875,1.9281005859375,-169.7552490234375,355,3.55,0
111,31538,0.298,90201,298,0,-8,1992,-357,-0.00390625,0.97265625,-0.17431640625,-20,40,14,-1.220703125,2.44140625,0.8544921875,-5261,1427,-1999,18010,314,-12719,98.931884765625,1.724853515625,-69.8675537109375,351,3.51,0
112,31539,0.298,90201,298,1,-39,1975,-434,-0.01904296875,0.96435546875,-0.2119140625,39,25,-21,2.38037109375,1.52587890625,-1.28173828125,-1190,957,5851,18528,352,-30901,101.77734375,1.93359375,-169.7442626953125,355,3.55,0
113,31540,0.304,90207,304,0,-25,1995,-384,-0.01220703125,0.97412109375,-0.1875,7,56,14,0.42724609375,3.41796875,0.8544921875,-5263,1457,-2032,18012,310,-12708,98.94287109375,1.702880859375,-69.80712890625,352,3.52,0
114,31541,0.305,90208,305,1,-39,1975,-441,-0.01904296875,0.96435546875,-0.21533203125,37,21,-23,2.25830078125,1.28173828125,-1.40380859375,-1150,965,5873,18530,353,-30900,101.788330078125,1.9390869140625,-169.73876953125,355,3.55,0
115,31542,0.311,90214,311,0,-36,1996,-393,-0.017578125,0.974609375,-0.19189453125,14,62,13,0.8544921875,3.7841796875,0.79345703125,-5239,1446,-2025,18014,309,-12704,98.953857421875,1.6973876953125,-69.78515625,352,3.52,0
116,31543,0.312,90215,312,1,-27,1980,-441,-0.01318359375,0.966796875,-0.21533203125,40,21,-22,2.44140625,1.28173828125,-1.3427734375,-1161,957,5901,18534,355,-30896,101.810302734375,1.9500732421875,-169.716796875,355,3.55,0
117,31544,0.318,90221,318,0,-41,1997,-394,-0.02001953125,0.97509765625,-0.1923828125,27,79,5,1.64794921875,4.82177734375,0.30517578125,-5281,1456,-2051,18017,308,-12694,98.9703369140625,1.69189453125,-69.730224609375,352,3.52,0
118,31545,0.319,90222,319,1,-25,1984,-440,-0.01220703125,0.96875,-0.21484375,43,27,-19,2.62451171875,1.64794921875,-1.15966796875,-1211,974,5874,18536,356,-30894,101.8212890625,1.95556640625,-169.705810546875,355,3.55,0
119,31546,0.325,90228,325,0,-47,2000,-404,-0.02294921875,0.9765625,-0.197265625,29,82,2,1.77001953125,5.0048828125,0.1220703125,-5261,1454,-2078,18020,307,-12688,98.98681640625,1.6864013671875,-69.697265625,352,3.52,0
120,31547,0.326,90229,326,1,-24,1995,-441,-0.01171875,0.97412109375,-0.21533203125,57,36,-21,3.47900390625,2.197265625,-1.28173828125,-1195,990,5846,18542,358,-30889,101.854248046875,1.966552734375,-169.6783447265625,354,3.54,0
121,31548,0.332,90235,332,0,-47,2000,-404,-0.02294921875,0.9765625,-0.197265625,29,82,2,1.77001953125,5.0048828125,0.1220703125,-5261,1454,-2078,18020,307,-12688,98.98681640625,1.6864013671875,-69.697265625,352,3.52,0
122,31549,0.333,90236,333,1,-28,2004,-432,-0.013671875,0.978515625,-0.2109375,62,43,-26,3.7841796875,2.62451171875,-1.5869140625,-1158,997,5845,18545,359,-30886,101.8707275390625,1.9720458984375,-169.661865234375,354,3.54,0
123,31550,0.339,90242,339,0,-40,1991,-409,-0.01953125,0.97216796875,-0.19970703125,31,81,0,1.89208984375,4.94384765625,0.0,-5240,1437,-2075,18026,306,-12672,99.019775390625,1.680908203125,-69.609375,353,3.53,0
124,31551,0.34,90243,340,1,-25,2005,-426,-0.01220703125,0.97900390625,-0.2080078125,52,51,-24,3.173828125,3.11279296875,-1.46484375,-1187,984,5847,18548,360,-30882,101.88720703125,1.9775390625,-169.639892578125,354,3.54,0
125,31552,0.346,90249,346,0,-40,1990,-402,-0.01953125,0.9716796875,-0.1962890625,34,77,2,2.0751953125,4.69970703125,0.1220703125,-5230,1425,-2049,18029,305,-12667,99.0362548828125,1.6754150390625,-69.5819091796875,353,3.53,0
126,31553,0.347,90250,347,1,-20,2002,-416,-0.009765625,0.9775390625,-0.203125,41,62,-27,2.50244140625,3.7841796875,-1.64794921875,-1208,949,5865,18553,361,-30874,101.9146728515625,1.9830322265625,-169.595947265625,354,3.54,0
127,31554,0.353,90256,353,0,-38,1988,-393,-0.0185546875,0.970703125,-0.19189453125,36,63,3,2.197265625,3.84521484375,0.18310546875,-5243,1420,-2055,18034,304,-12659,99.063720703125,1.669921875,-69.5379638671875,353,3.53,0
128,31555,0.366,90269,366,1,-24,1998,-411,-0.01171875,0.9755859375,-0.20068359375,36,74,-24,2.197265625,4.5166015625,-1.46484375,-1201,939,5875,18554,362,-30869,101.920166015625,1.988525390625,-169.5684814453125,354,3.54,0
129,31556,0.366,90269,366,2,-21,1928,711,-0.01025390625,0.94140625,0.34716796875,-43,111,29,-2.62451171875,6.77490234375,1.77001953125,1448,2123,-3866,12575,163,3365,69.0765380859375,0.8953857421875,18.4844970703125,358,3.58,0
130,31557,0.367,90270,367,0,-46,1994,-387,-0.0224609375,0.9736328125,-0.18896484375,37,55,7,2.25830078125,3.35693359375,0.42724609375,-5241,1424,-2032,18036,304,-12655,99.07470703125,1.669921875,-69.5159912109375,353,3.53,0
131,31558,0.368,90271,368,1,-36,2000,-413,-0.017578125,0.9765625,-0.20166015625,35,87,-27,2.13623046875,5.31005859375,-1.64794921875,-1205,962,5765,18560,363,-30854,101.953125,1.9940185546875,-169.486083984375,354,3.54,0
132,31559,0.374,90277,374,0,-58,2012,-370,-0.0283203125,0.982421875,-0.1806640625,24,25,10,1.46484375,1.52587890625,0.6103515625,-5242,1430,-2021,18042,302,-12648,99.107666015625,1.658935546875,-69.4775390625,352,3.52,0
133,31560,0.375,90278,375,1,-42,2003,-417,-0.0205078125,0.97802734375,-0.20361328125,34,84,-31,2.0751953125,5.126953125,-1.89208984375,-1224,955,5765,18562,364,-30848,101.964111328125,1.99951171875,-169.453125,354,3.54,0
134,31561,0.381,90284,381,0,-61,2018,-362,-0.02978515625,0.9853515625,-0.1767578125,21,15,9,1.28173828125,0.91552734375,0.54931640625,-5234,1412,-2048,18043,301,-12647,99.1131591796875,1.6534423828125,-69.4720458984375,352,3.52,0
135,31562,0.382,90285,382,1,-44,1995,-424,-0.021484375,0.97412109375,-0.20703125,35,87,-25,2.13623046875,5.31005859375,-1.52587890625,-1240,978,5756,18566,365,-30838,101.986083984375,2.0050048828125,-169.398193359375,354,3.54,0
136,31563,0.388,90291,388,0,-67,2023,-345,-0.03271484375,0.98779296875,-0.16845703125,16,5,6,0.9765625,0.30517578125,0.3662109375,-5255,1421,-2015,18046,301,-12645,99.129638671875,1.6534423828125,-69.4610595703125,351,3.51,0
137,31564,0.389,90292,389,1,-47,1989,-421,-0.02294921875,0.97119140625,-0.20556640625,29,88,-25,1.77001953125,5.37109375,-1.52587890625,-1243,967,5751,18567,365,-30832,101.9915771484375,2.0050048828125,-169.365234375,354,3.54,0
138,31565,0.395,90298,395,0,-60,2028,-337,-0.029296875,0.990234375,-0.16455078125,11,5,6,0.67138671875,0.30517578125,0.3662109375,-5260,1436,-2006,18047,301,-12644,99.1351318359375,1.6534423828125,-69.45556640625,351,3.51,0
139,31566,0.396,90299,396,1,-53,1991,-421,-0.02587890625,0.97216796875,-0.20556640625,30,87,-26,1.8310546875,5.31005859375,-1.5869140625,-1249,962,5797,18569,366,-30827,102.0025634765625,2.010498046875,-169.3377685546875,354,3.54,0
140,31567,0.402,90305,402,0,-58,2029,-337,-0.0283203125,0.99072265625,-0.16455078125,7,4,5,0.42724609375,0.244140625,0.30517578125,-5246,1459,-2033,18048,301,-12643,99.140625,1.6534423828125,-69.4500732421875,350,3.5,0
141,31568,0.403,90306,403,1,-67,1988,-424,-0.03271484375,0.970703125,-0.20703125,29,84,-22,1.77001953125,5.126953125,-1.3427734375,-1249,956,5868,18572,366,-30816,102.01904296875,2.010498046875,-169.27734375,354,3.54,0
142,31569,0.409,90312,409,0,-58,2028,-332,-0.0283203125,0.990234375,-0.162109375,-2,0,7,-0.1220703125,0.0,0.42724609375,-5254,1469,-2022,18048,300,-12641,99.140625,1.64794921875,-69.4390869140625,350,3.5,0
143,31570,0.41,90313,410,1,-72,1995,-423,-0.03515625,0.97412109375,-0.20654296875,29,85,-21,1.77001953125,5.18798828125,-1.28173828125,-1241,977,5866,18574,366,-30811,102.030029296875,2.010498046875,-169.2498779296875,354,3.54,0
144,31571,0.416,90319,416,0,-55,2026,-329,-0.02685546875,0.9892578125,-0.16064453125,-6,0,7,-0.3662109375,0.0,0.42724609375,-5240,1447,-2028,18048,300,-12640,99.140625,1.64794921875,-69.43359375,350,3.5,0
145,31572,0.424,90327,424,1,-85,1994,-436,-0.04150390625,0.9736328125,-0.212890625,29,83,-17,1.77001953125,5.06591796875,-1.03759765625,-1271,978,5856,18577,367,-30801,102.0465087890625,2.0159912109375,-169.1949462890625,354,3.54,0
146,31573,0.424,90327,424,2,-33,1907,726,-0.01611328125,0.93115234375,0.3544921875,-32,105,37,-1.953125,6.40869140625,2.25830078125,1486,2160,-3796,12554,170,3437,68.961181640625,0.933837890625,18.8800048828125,357,3.57,0
147,31574,0.424,90327,424,0,-61,2018,-321,-0.02978515625,0.9853515625,-0.15673828125,-10,0,4,-0.6103515625,0.0,0.244140625,-5264,1460,-2029,18048,300,-12639,99.140625,1.64794921875,-69.4281005859375,350,3.5,0
148,31575,0.424,90327,424,1,-92,2004,-435,-0.044921875,0.978515625,-0.21240234375,32,84,-21,1.953125,5.126953125,-1.28173828125,-1265,972,5826,18579,367,-30796,102.0574951171875,2.0159912109375,-169.16748046875,354,3.54,0
149,31576,0.43,90333,430,0,-66,2013,-319,-0.0322265625,0.98291015625,-0.15576171875,-8,0,8,-0.48828125,0.0,0.48828125,-5252,1449,-2068,18048,300,-12638,99.140625,1.64794921875,-69.422607421875,349,3.49,0
150,31577,0.431,90334,431,1,-100,2001,-440,-0.048828125,0.97705078125,-0.21484375,27,82,-19,1.64794921875,5.0048828125,-1.15966796875,-1260,982,5838,18580,367,-30791,102.06298828125,2.0159912109375,-169.1400146484375,354,3.54,0
151,31578,0.437,90340,437,0,-70,2015,-318,-0.0341796875,0.98388671875,-0.1552734375,-4,0,8,-0.244140625,0.0,0.48828125,-5258,1447,-2085,18048,300,-12637,99.140625,1.64794921875,-69.4171142578125,349,3.49,0
152,31579,0.438,90341,438,1,-95,1999,-441,-0.04638671875,0.97607421875,-0.21533203125,15,81,-13,0.91552734375,4.94384765625,-0.79345703125,-1261,993,5831,18582,367,-30781,102.073974609375,2.0159912109375,-169.0850830078125,354,3.54,0
153,31580,0.444,90347,444,0,-81,2017,-326,-0.03955078125,0.98486328125,-0.1591796875,9,-4,11,0.54931640625,-0.244140625,0.67138671875,-5262,1421,-2038,18050,299,-12636,99.151611328125,1.6424560546875,-69.41162109375,349,3.49,0
154,31581,0.445,90348,445,1,-92,1992,-440,-0.044921875,0.97265625,-0.21484375,13,84,-8,0.79345703125,5.126953125,-0.48828125,-1279,1011,5852,18582,366,-30776,102.073974609375,2.010498046875,-169.0576171875,354,3.54,0
155,31582,0.451,90354,451,0,-87,2019,-331,-0.04248046875,0.98583984375,-0.16162109375,12,-9,11,0.732421875,-0.54931640625,0.67138671875,-5244,1393,-2017,18051,298,-12636,99.1571044921875,1.636962890625,-69.41162109375,349,3.49,0
156,31583,0.452,90355,452,1,-104,1982,-444,-0.05078125,0.9677734375,-0.216796875,12,74,-4,0.732421875,4.5166015625,-0.244140625,-1260,1000,5844,18583,365,-30767,102.0794677734375,2.0050048828125,-169.0081787109375,354,3.54,0
157,31584,0.458,90361,458,0,-87,2019,-331,-0.04248046875,0.98583984375,-0.16162109375,12,-9,11,0.732421875,-0.54931640625,0.67138671875,-5244,1393,-2017,18051,298,-12636,99.1571044921875,1.636962890625,-69.41162109375,349,3.49,0
158,31585,0.459,90362,459,1,-109,1985,-451,-0.05322265625,0.96923828125,-0.22021484375,17,64,-1,1.03759765625,3.90625,-0.06103515625,-1257,997,5862,18584,364,-30763,102.0849609375,1.99951171875,-168.9862060546875,354,3.54,0
159,31586,0.465,90368,465,0,-100,2019,-332,-0.048828125,0.98583984375,-0.162109375,8,-17,9,0.48828125,-1.03759765625,0.54931640625,-5220,1396,-1941,18053,298,-12636,99.1680908203125,1.636962890625,-69.41162109375,349,3.49,0
160,31587,0.466,90369,466,1,-108,1983,-454,-0.052734375,0.96826171875,-0.2216796875,19,50,-1,1.15966796875,3.0517578125,-0.06103515625,-1235,1012,5861,18585,364,-30760,102.0904541015625,1.99951171875,-168.9697265625,354,3.54,0
161,31588,0.472,90375,472,0,-102,2016,-337,-0.0498046875,0.984375,-0.16455078125,7,-20,7,0.42724609375,-1.220703125,0.42724609375,-5223,1420,-1948,18054,298,-12637,99.173583984375,1.636962890625,-69.4171142578125,349,3.49,0
162,31589,0.473,90376,473,1,-107,1983,-461,-0.05224609375,0.96826171875,-0.22509765625,23,20,3,1.40380859375,1.220703125,0.18310546875,-1253,1016,5868,18587,363,-30757,102.1014404296875,1.9940185546875,-168.9532470703125,354,3.54,0
163,31590,0.479,90382,479,0,-98,2009,-338,-0.0478515625,0.98095703125,-0.1650390625,8,-21,4,0.48828125,-1.28173828125,0.244140625,-5232,1446,-1960,18056,298,-12637,99.1845703125,1.636962890625,-69.4171142578125,349,3.49,0
164,31591,0.48,90383,480,1,-106,1981,-460,-0.0517578125,0.96728515625,-0.224609375,22,8,3,1.3427734375,0.48828125,0.18310546875,-1269,1028,5873,18588,363,-30757,102.10693359375,1.9940185546875,-168.9532470703125,354,3.54,0
165,31592,0.488,90391,488,0,-90,2004,-335,-0.0439453125,0.978515625,-0.16357421875,8,-21,1,0.48828125,-1.28173828125,0.06103515625,-5231,1453,-1982,18056,298,-12638,99.1845703125,1.636962890625,-69.422607421875,349,3.49,0
166,31593,0.488,90391,488,1,-107,1983,-463,-0.05224609375,0.96826171875,-0.22607421875,30,-1,4,1.8310546875,-0.06103515625,0.244140625,-1289,1024,5859,18591,363,-30756,102.1234130859375,1.9940185546875,-168.94775390625,354,3.54,0
167,31594,0.493,90396,493,0,-90,2004,-335,-0.0439453125,0.978515625,-0.16357421875,8,-21,1,0.48828125,-1.28173828125,0.06103515625,-5231,1453,-1982,18056,298,-12638,99.1845703125,1.636962890625,-69.422607421875,349,3.49,0
168,31595,0.494,90397,494,1,-107,1987,-463,-0.05224609375,0.97021484375,-0.22607421875,29,-2,2,1.77001953125,-0.1220703125,0.1220703125,-1302,1028,5841,18592,363,-30756,102.12890625,1.9940185546875,-168.94775390625,354,3.54,0
169,31596,0.5,90403,500,0,-60,2003,-320,-0.029296875,0.97802734375,-0.15625,-4,-7,4,-0.244140625,-0.42724609375,0.244140625,-5221,1427,-1988,18057,299,-12637,99.1900634765625,1.6424560546875,-69.4171142578125,349,3.49,0
170,31597,0.501,90404,501,1,-110,1989,-468,-0.0537109375,0.97119140625,-0.228515625,31,-5,5,1.89208984375,-0.30517578125,0.30517578125,-1291,1034,5836,18594,362,-30756,102.139892578125,1.988525390625,-168.94775390625,354,3.54,0
171,31598,0.507,90410,507,0,-51,2000,-317,-0.02490234375,0.9765625,-0.15478515625,-2,3,7,-0.1220703125,0.18310546875,0.42724609375,-5233,1445,-1979,18060,267,-12638,99.20654296875,1.4666748046875,-69.422607421875,349,3.49,0
172,31599,0.508,90411,508,1,-112,1991,-463,-0.0546875,0.97216796875,-0.22607421875,24,-16,5,1.46484375,-0.9765625,0.30517578125,-1281,1027,5858,18596,363,-30757,102.15087890625,1.9940185546875,-168.9532470703125,354,3.54,0
173,31600,0.514,90417,514,0,-41,2003,-309,-0.02001953125,0.97802734375,-0.15087890625,-4,23,19,-0.244140625,1.40380859375,1.15966796875,-5248,1446,-1974,18061,266,-12636,99.2120361328125,1.461181640625,-69.41162109375,349,3.49,0
174,31601,0.515,90418,515,1,-111,1992,-467,-0.05419921875,0.97265625,-0.22802734375,21,-20,4,1.28173828125,-1.220703125,0.244140625,-1291,1015,5888,18597,363,-30758,102.1563720703125,1.9940185546875,-168.958740234375,355,3.55,0
175,31602,0.521,90424,521,0,-43,2005,-311,-0.02099609375,0.97900390625,-0.15185546875,0,31,25,0.0,1.89208984375,1.52587890625,-5256,1446,-1959,18061,264,-12634,99.2120361328125,1.4501953125,-69.400634765625,349,3.49,0
176,31603,0.522,90425,522,1,-113,1988,-460,-0.05517578125,0.970703125,-0.224609375,20,-21,5,1.220703125,-1.28173828125,0.30517578125,-1273,1028,5926,18598,363,-30758,102.161865234375,1.9940185546875,-168.958740234375,355,3.55,0
177,31604,0.528,90431,528,0,-40,2006,-314,-0.01953125,0.9794921875,-0.1533203125,2,34,29,0.1220703125,2.0751953125,1.77001953125,-5270,1453,-1964,18062,263,-12632,99.217529296875,1.4447021484375,-69.3896484375,349,3.49,0
178,31605,0.529,90432,529,1,-103,1986,-453,-0.05029296875,0.9697265625,-0.22119140625,20,-25,3,1.220703125,-1.52587890625,0.18310546875,-1293,1001,5866,18600,363,-30760,102.1728515625,1.9940185546875,-168.9697265625,355,3.55,0
179,31606,0.535,90438,535,0,-50,2015,-319,-0.0244140625,0.98388671875,-0.15576171875,2,28,39,0.1220703125,1.708984375,2.38037109375,-5269,1430,-2025,18063,258,-12627,99.2230224609375,1.417236328125,-69.3621826171875,349,3.49,0
180,31607,0.536,90439,536,1,-100,1987,-454,-0.048828125,0.97021484375,-0.2216796875,25,-24,3,1.52587890625,-1.46484375,0.18310546875,-1282,1008,5880,18601,363,-30761,102.1783447265625,1.9940185546875,-168.9752197265625,355,3.55,0
181,31608,0.542,90445,542,0,-53,2022,-327,-0.02587890625,0.9873046875,-0.15966796875,0,22,41,0.0,1.3427734375,2.50244140625,-5273,1442,-2053,18063,256,-12626,99.2230224609375,1.40625,-69.356689453125,350,3.5,0
182,31609,0.543,90446,543,1,-89,1999,-443,-0.04345703125,0.97607421875,-0.21630859375,29,-30,4,1.77001953125,-1.8310546875,0.244140625,-1265,1030,5842,18604,364,-30764,102.19482421875,1.99951171875,-168.99169921875,355,3.55,0
183,31610,0.552,90455,552,0,-72,2025,-342,-0.03515625,0.98876953125,-0.1669921875,0,1,38,0.0,0.06103515625,2.3193359375,-5296,1455,-2045,18064,253,-12625,99.228515625,1.3897705078125,-69.3511962890625,350,3.5,0
184,31611,0.552,90455,552,1,-82,2007,-442,-0.0400390625,0.97998046875,-0.2158203125,30,-29,5,1.8310546875,-1.77001953125,0.30517578125,-1262,1002,5852,18605,364,-30765,102.2003173828125,1.99951171875,-168.9971923828125,355,3.55,0
185,31612,0.552,90455,552,2,-77,1910,732,-0.03759765625,0.9326171875,0.357421875,-13,-30,-5,-0.79345703125,-1.8310546875,-0.30517578125,1467,2138,-3963,12528,197,3501,68.818359375,1.0821533203125,19.2315673828125,355,3.55,0
186,31613,0.556,90459,556,0,-82,2020,-352,-0.0400390625,0.986328125,-0.171875,2,-10,34,0.1220703125,-0.6103515625,2.0751953125,-5311,1449,-2068,18064,251,-12625,99.228515625,1.3787841796875,-69.3511962890625,350,3.5,0
187,31614,0.557,90460,557,1,-72,2006,-442,-0.03515625,0.9794921875,-0.2158203125,25,-31,7,1.52587890625,-1.89208984375,0.42724609375,-1263,1013,5831,18606,364,-30766,102.205810546875,1.99951171875,-169.002685546875,355,3.55,0
188,31615,0.563,90466,563,0,-89,2018,-361,-0.04345703125,0.9853515625,-0.17626953125,1,-20,28,0.06103515625,-1.220703125,1.708984375,-5294,1455,-2076,18065,250,-12626,99.2340087890625,1.373291015625,-69.356689453125,350,3.5,0
189,31616,0.564,90467,564,1,-61,2000,-445,-0.02978515625,0.9765625,-0.21728515625,21,-34,13,1.28173828125,-2.0751953125,0.79345703125,-1279,1027,5815,18608,363,-30770,102.216796875,1.9940185546875,-169.024658203125,355,3.55,0
190,31617,0.57,90473,570,0,-94,2008,-375,-0.0458984375,0.98046875,-0.18310546875,9,-38,16,0.54931640625,-2.3193359375,0.9765625,-5288,1439,-2088,18066,250,-12628,99.239501953125,1.373291015625,-69.36767578125,350,3.5,0
191,31618,0.571,90474,571,1,-54,2005,-452,-0.0263671875,0.97900390625,-0.220703125,24,-36,14,1.46484375,-2.197265625,0.8544921875,-1274,1023,5804,18609,363,-30771,102.2222900390625,1.9940185546875,-169.0301513671875,355,3.55,0
192,31619,0.582,90485,582,2,-75,1914,736,-0.03662109375,0.9345703125,0.359375,-21,-48,-1,-1.28173828125,-2.9296875,-0.06103515625,1511,2172,-3946,12525,197,3492,68.8018798828125,1.0821533203125,19.18212890625,355,3.55,0
193,31620,0.584,90487,584,0,-92,2010,-378,-0.044921875,0.9814453125,-0.1845703125,13,-45,13,0.79345703125,-2.74658203125,0.79345703125,-5300,1449,-2093,18067,250,-12630,99.2449951171875,1.373291015625,-69.378662109375,350,3.5,0
194,31621,0.585,90488,585,1,-55,2007,-461,-0.02685546875,0.97998046875,-0.22509765625,11,-50,18,0.67138671875,-3.0517578125,1.0986328125,-1245,1015,5835,18610,362,-30779,102.227783203125,1.988525390625,-169.0740966796875,355,3.55,0
195,31622,0.591,90494,591,0,-69,2018,-372,-0.03369140625,0.9853515625,-0.181640625,5,-70,7,0.30517578125,-4.2724609375,0.42724609375,-5309,1409,-2043,18069,251,-12639,99.2559814453125,1.3787841796875,-69.4281005859375,350,3.5,0
196,31623,0.592,90495,592,1,-54,1997,-463,-0.0263671875,0.97509765625,-0.22607421875,8,-56,25,0.48828125,-3.41796875,1.52587890625,-1228,1017,5815,18610,362,-30780,102.227783203125,1.988525390625,-169.07958984375,355,3.55,0
197,31624,0.598,90501,598,0,-55,2020,-362,-0.02685546875,0.986328125,-0.1767578125,0,-72,10,0.0,-4.39453125,0.6103515625,-5294,1405,-2050,18070,251,-12642,99.261474609375,1.3787841796875,-69.444580078125,350,3.5,0
198,31625,0.599,90502,599,1,-42,1976,-454,-0.0205078125,0.96484375,-0.2216796875,2,-55,22,0.1220703125,-3.35693359375,1.3427734375,-1194,1006,5779,18610,362,-30779,102.227783203125,1.988525390625,-169.0740966796875,356,3.56,0
199,31626,0.605,90508,605,0,-31,2023,-354,-0.01513671875,0.98779296875,-0.1728515625,-6,-72,16,-0.3662109375,-4.39453125,0.9765625,-5312,1417,-1953,18070,252,-12649,99.261474609375,1.38427734375,-69.4830322265625,350,3.5,0
200,31627,0.606,90509,606,1,-41,1976,-459,-0.02001953125,0.96484375,-0.22412109375,4,-51,22,0.244140625,-3.11279296875,1.3427734375,-1193,1019,5759,18616,358,-30779,102.2607421875,1.966552734375,-169.0740966796875,356,3.56,0
201,31628,0.612,90515,612,0,-21,2023,-349,-0.01025390625,0.98779296875,-0.17041015625,-7,-74,19,-0.42724609375,-4.5166015625,1.15966796875,-5299,1427,-1940,18069,251,-12652,99.2559814453125,1.3787841796875,-69.49951171875,350,3.5,0
202,31629,0.613,90516,613,1,-46,1978,-463,-0.0224609375,0.9658203125,-0.22607421875,10,-52,20,0.6103515625,-3.173828125,1.220703125,-1202,1002,5801,18616,358,-30779,102.2607421875,1.966552734375,-169.0740966796875,356,3.56,0
203,31630,0.619,90522,619,0,-21,2023,-349,-0.01025390625,0.98779296875,-0.17041015625,-7,-74,19,-0.42724609375,-4.5166015625,1.15966796875,-5299,1427,-1940,18069,251,-12652,99.2559814453125,1.3787841796875,-69.49951171875,350,3.5,0
204,31631,0.62,90523,620,1,-45,1975,-466,-0.02197265625,0.96435546875,-0.2275390625,7,-55,17,0.42724609375,-3.35693359375,1.03759765625,-1188,996,5788,18616,358,-30779,102.2607421875,1.966552734375,-169.0740966796875,356,3.56,0
205,31632,0.621,90524,621,2,-42,1913,734,-0.0205078125,0.93408203125,0.3583984375,-5,-63,-4,-0.30517578125,-3.84521484375,-0.244140625,1405,2130,-3907,12519,191,3460,68.7689208984375,1.0491943359375,19.00634765625,356,3.56,0
206,31633,0.626,90529,626,0,-8,2015,-339,-0.00390625,0.98388671875,-0.16552734375,-21,-93,27,-1.28173828125,-5.67626953125,1.64794921875,-5274,1435,-1923,18067,250,-12665,99.2449951171875,1.373291015625,-69.5709228515625,350,3.5,0
207,31634,0.627,90530,627,1,-43,1974,-465,-0.02099609375,0.9638671875,-0.22705078125,4,-57,17,0.244140625,-3.47900390625,1.03759765625,-1206,984,5810,18617,358,-30779,102.2662353515625,1.966552734375,-169.0740966796875,356,3.56,0
208,31635,0.628,90531,628,2,-34,1913,732,-0.0166015625,0.93408203125,0.357421875,-4,-58,-7,-0.244140625,-3.5400390625,-0.42724609375,1416,2125,-3886,12519,191,3457,68.7689208984375,1.0491943359375,18.9898681640625,356,3.56,0
209,31636,0.633,90536,633,0,-8,2011,-340,-0.00390625,0.98193359375,-0.166015625,-25,-101,27,-1.52587890625,-6.16455078125,1.64794921875,-5273,1440,-1940,18066,250,-12670,99.239501953125,1.373291015625,-69.598388671875,350,3.5,0
210,31637,0.634,90537,634,1,-37,1963,-466,-0.01806640625,0.95849609375,-0.2275390625,11,-46,16,0.67138671875,-2.8076171875,0.9765625,-1211,959,5720,18617,358,-30778,102.2662353515625,1.966552734375,-169.068603515625,356,3.56,0
211,31638,0.641,90544,641,2,-27,1914,730,-0.01318359375,0.9345703125,0.3564453125,-7,-53,-10,-0.42724609375,-3.23486328125,-0.6103515625,1444,2138,-3879,12519,191,3456,68.7689208984375,1.0491943359375,18.984375,356,3.56,0
212,31639,0.641,90544,641,0,-5,1999,-344,-0.00244140625,0.97607421875,-0.16796875,-20,-101,27,-1.220703125,-6.16455078125,1.64794921875,-5259,1442,-1908,18064,250,-12680,99.228515625,1.373291015625,-69.6533203125,350,3.5,0
213,31640,0.641,90544,641,1,-37,1959,-465,-0.01806640625,0.95654296875,-0.22705078125,17,-36,15,1.03759765625,-2.197265625,0.91552734375,-1212,949,5682,18617,358,-30778,102.2662353515625,1.966552734375,-169.068603515625,356,3.56,0
214,31641,0.642,90545,642,2,-20,1917,725,-0.009765625,0.93603515625,0.35400390625,-18,-45,-13,-1.0986328125,-2.74658203125,-0.79345703125,1463,2130,-3929,12515,195,3456,68.7469482421875,1.0711669921875,18.984375,356,3.56,0
215,31642,0.647,90550,647,0,-8,1993,-349,-0.00390625,0.97314453125,-0.17041015625,-12,-95,25,-0.732421875,-5.79833984375,1.52587890625,-5260,1452,-1891,18064,249,-12685,99.228515625,1.3677978515625,-69.6807861328125,350,3.5,0
216,31643,0.648,90551,648,1,-39,1972,-462,-0.01904296875,0.962890625,-0.2255859375,27,-23,10,1.64794921875,-1.40380859375,0.6103515625,-1228,956,5693,18618,357,-30778,102.271728515625,1.9610595703125,-169.068603515625,356,3.56,0
217,31644,0.649,90552,649,2,-20,1917,725,-0.009765625,0.93603515625,0.35400390625,-21,-43,-13,-1.28173828125,-2.62451171875,-0.79345703125,1464,2109,-3933,12515,195,3456,68.7469482421875,1.0711669921875,18.984375,356,3.56,0
218,31645,0.654,90557,654,0,-8,1993,-349,-0.00390625,0.97314453125,-0.17041015625,-12,-95,25,-0.732421875,-5.79833984375,1.52587890625,-5260,1452,-1891,18064,249,-12685,99.228515625,1.3677978515625,-69.6807861328125,350,3.5,0
219,31646,0.655,90558,655,1,-41,1978,-463,-0.02001953125,0.9658203125,-0.22607421875,30,-21,6,1.8310546875,-1.28173828125,0.3662109375,-1202,963,5684,18618,357,-30778,102.271728515625,1.9610595703125,-169.068603515625,356,3.56,0
220,31647,0.656,90559,656,2,-26,1917,724,-0.0126953125,0.93603515625,0.353515625,-31,-41,-9,-1.89208984375,-2.50244140625,-0.54931640625,1471,2101,-3904,12515,195,3456,68.7469482421875,1.0711669921875,18.984375,356,3.56,0
221,31648,0.661,90564,661,0,-14,1995,-381,-0.0068359375,0.97412109375,-0.18603515625,-1,-59,22,-0.06103515625,-3.60107421875,1.3427734375,-5252,1459,-1881,18064,249,-12694,99.228515625,1.3677978515625,-69.730224609375,349,3.49,0
222,31649,0.662,90565,662,1,-39,1986,-460,-0.01904296875,0.9697265625,-0.224609375,30,-16,6,1.8310546875,-0.9765625,0.3662109375,-1189,947,5706,18618,357,-30778,102.271728515625,1.9610595703125,-169.068603515625,356,3.56,0
223,31650,0.663,90566,663,2,-33,1917,722,-0.01611328125,0.93603515625,0.3525390625,-39,-41,-5,-2.38037109375,-2.50244140625,-0.30517578125,1486,2084,-3941,12515,195,3456,68.7469482421875,1.0711669921875,18.984375,356,3.56,0
224,31651,0.668,90571,668,0,-12,1994,-394,-0.005859375,0.9736328125,-0.1923828125,0,-47,19,0.0,-2.86865234375,1.15966796875,-5225,1457,-1904,18064,248,-12696,99.228515625,1.3623046875,-69.7412109375,349,3.49,0
225,31652,0.669,90572,669,1,-38,1997,-453,-0.0185546875,0.97509765625,-0.22119140625,29,-7,2,1.77001953125,-0.42724609375,0.1220703125,-1170,926,5735,18619,356,-30778,102.2772216796875,1.95556640625,-169.068603515625,356,3.56,0
226,31653,0.67,90573,670,2,-39,1917,721,-0.01904296875,0.93603515625,0.35205078125,-48,-39,-1,-2.9296875,-2.38037109375,-0.06103515625,1477,2095,-3974,12515,195,3456,68.7469482421875,1.0711669921875,18.984375,356,3.56,0
227,31654,0.675,90578,675,0,-1,2000,-409,-0.00048828125,0.9765625,-0.19970703125,6,-27,14,0.3662109375,-1.64794921875,0.8544921875,-5232,1451,-1906,18066,248,-12697,99.239501953125,1.3623046875,-69.7467041015625,349,3.49,0
228,31655,0.676,90579,676,1,-34,1998,-450,-0.0166015625,0.9755859375,-0.2197265625,27,-4,1,1.64794921875,-0.244140625,0.06103515625,-1164,905,5713,18619,356,-30778,102.2772216796875,1.95556640625,-169.068603515625,356,3.56,0
229,31656,0.677,90580,677,2,-51,1914,725,-0.02490234375,0.9345703125,0.35400390625,-54,-37,7,-3.2958984375,-2.25830078125,0.42724609375,1458,2065,-3973,12515,195,3456,68.7469482421875,1.0711669921875,18.984375,357,3.57,0
230,31657,0.682,90585,682,0,4,2001,-412,0.001953125,0.97705078125,-0.201171875,10,-17,13,0.6103515625,-1.03759765625,0.79345703125,-5236,1456,-1898,18066,247,-12698,99.239501953125,1.3568115234375,-69.752197265625,348,3.48,0
231,31658,0.683,90586,683,1,-35,2001,-445,-0.01708984375,0.97705078125,-0.21728515625,17,4,2,1.03759765625,0.244140625,0.1220703125,-1179,926,5751,18620,356,-30777,102.28271484375,1.95556640625,-169.0631103515625,356,3.56,0
232,31659,0.684,90587,684,2,-51,1912,729,-0.02490234375,0.93359375,0.35595703125,-47,-33,8,-2.86865234375,-2.01416015625,0.48828125,1468,2051,-3931,12515,196,3456,68.7469482421875,1.07666015625,18.984375,356,3.56,0
233,31660,0.689,90592,689,0,12,2008,-410,0.005859375,0.98046875,-0.2001953125,7,-14,14,0.42724609375,-0.8544921875,0.8544921875,-5226,1453,-1902,18067,247,-12697,99.2449951171875,1.3568115234375,-69.7467041015625,348,3.48,0
234,31661,0.69,90593,690,1,-39,1990,-443,-0.01904296875,0.9716796875,-0.21630859375,15,12,4,0.91552734375,0.732421875,0.244140625,-1216,951,5718,18621,355,-30775,102.2882080078125,1.9500732421875,-169.0521240234375,356,3.56,0
235,31662,0.691,90594,691,2,-46,1909,736,-0.0224609375,0.93212890625,0.359375,-27,-21,9,-1.64794921875,-1.28173828125,0.54931640625,1477,2088,-3944,12512,195,3454,68.73046875,1.0711669921875,18.973388671875,356,3.56,0
236,31663,0.696,90599,696,0,21,2010,-399,0.01025390625,0.9814453125,-0.19482421875,17,-5,17,1.03759765625,-0.30517578125,1.03759765625,-5201,1407,-1926,18070,245,-12697,99.261474609375,1.3458251953125,-69.7467041015625,348,3.48,0
237,31664,0.697,90600,697,1,-38,1992,-440,-0.0185546875,0.97265625,-0.21484375,17,11,5,1.03759765625,0.67138671875,0.30517578125,-1198,954,5698,18622,355,-30774,102.293701171875,1.9500732421875,-169.046630859375,356,3.56,0
238,31665,0.698,90601,698,2,-45,1909,734,-0.02197265625,0.93212890625,0.3583984375,-25,-25,10,-1.52587890625,-1.52587890625,0.6103515625,1481,2104,-3949,12511,194,3453,68.7249755859375,1.065673828125,18.9678955078125,356,3.56,0
239,31666,0.705,90608,705,0,21,2010,-393,0.01025390625,0.9814453125,-0.19189453125,19,-11,22,1.15966796875,-0.67138671875,1.3427734375,-5215,1409,-1945,18071,245,-12697,99.2669677734375,1.3458251953125,-69.7467041015625,348,3.48,0
240,31667,0.705,90608,705,1,-36,1986,-433,-0.017578125,0.9697265625,-0.21142578125,17,11,1,1.03759765625,0.67138671875,0.06103515625,-1216,980,5704,18624,355,-30773,102.3046875,1.9500732421875,-169.0411376953125,356,3.56,0
241,31668,0.705,90608,705,2,-44,1910,732,-0.021484375,0.9326171875,0.357421875,-28,-24,11,-1.708984375,-1.46484375,0.67138671875,1484,2119,-3954,12509,194,3452,68.7139892578125,1.065673828125,18.96240234375,356,3.56,0
242,31669,0.71,90613,710,0,21,2010,-393,0.01025390625,0.9814453125,-0.19189453125,19,-11,22,1.15966796875,-0.67138671875,1.3427734375,-5215,1409,-1945,18071,245,-12697,99.2669677734375,1.3458251953125,-69.7467041015625,348,3.48,0
243,31670,0.711,90614,711,1,-33,1983,-438,-0.01611328125,0.96826171875,-0.2138671875,22,8,1,1.3427734375,0.48828125,0.06103515625,-1244,980,5681,18625,355,-30772,102.3101806640625,1.9500732421875,-169.03564453125,356,3.56,0
244,31671,0.712,90615,712,2,-45,1908,731,-0.02197265625,0.931640625,0.35693359375,-31,-18,13,-1.89208984375,-1.0986328125,0.79345703125,1485,2156,-3959,12506,193,3450,68.697509765625,1.0601806640625,18.951416015625,356,3.56,0
245,31672,0.717,90620,717,0,10,2015,-362,0.0048828125,0.98388671875,-0.1767578125,14,-45,27,0.8544921875,-2.74658203125,1.64794921875,-5235,1404,-1947,18075,242,-12701,99.2889404296875,1.329345703125,-69.7686767578125,348,3.48,0
246,31673,0.718,90621,718,1,-36,1982,-433,-0.017578125,0.9677734375,-0.21142578125,24,6,0,1.46484375,0.3662109375,0.0,-1213,979,5697,18626,354,-30771,102.315673828125,1.944580078125,-169.0301513671875,356,3.56,0
247,31674,0.719,90622,719,2,-45,1908,734,-0.02197265625,0.931640625,0.3583984375,-27,-19,14,-1.64794921875,-1.15966796875,0.8544921875,1485,2159,-3921,12505,193,3450,68.6920166015625,1.0601806640625,18.951416015625,356,3.56,0
248,31675,0.724,90627,724,0,10,2020,-353,0.0048828125,0.986328125,-0.17236328125,10,-56,25,0.6103515625,-3.41796875,1.52587890625,-5240,1426,-1966,18076,242,-12704,99.29443359375,1.329345703125,-69.78515625,348,3.48,0
249,31676,0.725,90628,725,1,-39,1985,-439,-0.01904296875,0.96923828125,-0.21435546875,27,-6,1,1.64794921875,-0.3662109375,0.06103515625,-1214,985,5732,18628,355,-30771,102.32666015625,1.9500732421875,-169.0301513671875,356,3.56,0
250,31677,0.726,90629,726,2,-45,1909,738,-0.02197265625,0.93212890625,0.3603515625,-22,-20,14,-1.3427734375,-1.220703125,0.8544921875,1478,2143,-3911,12504,192,3449,68.6865234375,1.0546875,18.9459228515625,356,3.56,0
251,31678,0.731,90634,731,0,0,2016,-338,0.0,0.984375,-0.1650390625,6,-66,25,0.3662109375,-4.0283203125,1.52587890625,-5251,1405,-1952,18077,241,-12710,99.2999267578125,1.3238525390625,-69.818115234375,347,3.47,0
252,31679,0.732,90635,732,1,-45,1987,-444,-0.02197265625,0.97021484375,-0.216796875,27,-10,-1,1.64794921875,-0.6103515625,-0.06103515625,-1235,993,5772,18629,355,-30771,102.3321533203125,1.9500732421875,-169.0301513671875,356,3.56,0
253,31680,0.733,90636,733,2,-41,1914,739,-0.02001953125,0.9345703125,0.36083984375,-22,-16,15,-1.3427734375,-0.9765625,0.91552734375,1481,2147,-3860,12502,191,3448,68.675537109375,1.0491943359375,18.9404296875,356,3.56,0
254,31681,0.738,90641,738,0,-7,2020,-330,-0.00341796875,0.986328125,-0.1611328125,5,-67,24,0.30517578125,-4.08935546875,1.46484375,-5269,1396,-1945,18078,240,-12713,99.305419921875,1.318359375,-69.8345947265625,347,3.47,0
255,31682,0.739,90642,739,1,-50,1989,-449,-0.0244140625,0.97119140625,-0.21923828125,29,-22,-4,1.77001953125,-1.3427734375,-0.244140625,-1240,967,5782,18632,356,-30773,102.3486328125,1.95556640625,-169.0411376953125,356,3.56,0
256,31683,0.751,90654,751,2,-40,1915,737,-0.01953125,0.93505859375,0.35986328125,-25,-13,14,-1.52587890625,-0.79345703125,0.8544921875,1480,2174,-3861,12501,191,3447,68.6700439453125,1.0491943359375,18.9349365234375,356,3.56,0
257,31684,0.753,90656,753,1,-45,1990,-458,-0.02197265625,0.9716796875,-0.2236328125,32,-24,2,1.953125,-1.46484375,0.1220703125,-1245,953,5769,18635,356,-30775,102.3651123046875,1.95556640625,-169.0521240234375,356,3.56,0
258,31685,0.754,90657,754,2,-43,1915,742,-0.02099609375,0.93505859375,0.3623046875,-31,-10,13,-1.89208984375,-0.6103515625,0.79345703125,1532,2165,-3871,12496,190,3447,68.642578125,1.043701171875,18.9349365234375,356,3.56,0
259,31686,0.759,90662,759,0,-26,2028,-329,-0.0126953125,0.990234375,-0.16064453125,-5,-42,20,-0.30517578125,-2.5634765625,1.220703125,-5243,1452,-1977,18079,238,-12722,99.3109130859375,1.307373046875,-69.884033203125,347,3.47,0
260,31687,0.76,90663,760,1,-47,2001,-453,-0.02294921875,0.97705078125,-0.22119140625,27,-25,3,1.64794921875,-1.52587890625,0.18310546875,-1262,952,5786,18637,356,-30777,102.3760986328125,1.95556640625,-169.0631103515625,356,3.56,0
261,31688,0.761,90664,761,2,-45,1913,745,-0.02197265625,0.93408203125,0.36376953125,-29,-12,15,-1.77001953125,-0.732421875,0.91552734375,1532,2163,-3845,12495,189,3446,68.6370849609375,1.0382080078125,18.929443359375,356,3.56,0
262,31689,0.766,90669,766,0,-31,2026,-325,-0.01513671875,0.9892578125,-0.15869140625,-19,-28,15,-1.15966796875,-1.708984375,0.91552734375,-5222,1430,-1963,18078,237,-12723,99.305419921875,1.3018798828125,-69.8895263671875,348,3.48,0
263,31690,0.767,90670,767,1,-47,2005,-454,-0.02294921875,0.97900390625,-0.2216796875,22,-19,4,1.3427734375,-1.15966796875,0.244140625,-1203,928,5733,18638,357,-30777,102.381591796875,1.9610595703125,-169.0631103515625,355,3.55,0
264,31691,0.768,90671,768,2,-50,1907,748,-0.0244140625,0.93115234375,0.365234375,-30,-14,16,-1.8310546875,-0.8544921875,0.9765625,1496,2174,-3871,12492,188,3445,68.62060546875,1.03271484375,18.9239501953125,355,3.55,0
265,31692,0.773,90676,773,0,-36,2021,-327,-0.017578125,0.98681640625,-0.15966796875,-18,-11,12,-1.0986328125,-0.67138671875,0.732421875,-5216,1438,-1976,18077,237,-12723,99.2999267578125,1.3018798828125,-69.8895263671875,348,3.48,0
266,31693,0.774,90677,774,1,-44,2005,-450,-0.021484375,0.97900390625,-0.2197265625,18,-8,5,1.0986328125,-0.48828125,0.30517578125,-1192,899,5710,18640,357,-30778,102.392578125,1.9610595703125,-169.068603515625,355,3.55,0
267,31694,0.775,90678,775,2,-52,1905,749,-0.025390625,0.93017578125,0.36572265625,-27,-14,17,-1.64794921875,-0.8544921875,1.03759765625,1496,2171,-3818,12491,187,3445,68.6151123046875,1.0272216796875,18.9239501953125,355,3.55,0
268,31695,0.78,90683,780,0,-36,2021,-327,-0.017578125,0.98681640625,-0.15966796875,-18,-11,12,-1.0986328125,-0.67138671875,0.732421875,-5216,1438,-1976,18077,237,-12723,99.2999267578125,1.3018798828125,-69.8895263671875,348,3.48,0
269,31696,0.781,90684,781,1,-44,2006,-444,-0.021484375,0.9794921875,-0.216796875,13,-2,2,0.79345703125,-0.1220703125,0.1220703125,-1219,906,5743,18640,356,-30777,102.392578125,1.95556640625,-169.0631103515625,355,3.55,0
270,31697,0.782,90685,782,2,-53,1901,751,-0.02587890625,0.92822265625,0.36669921875,-29,-17,19,-1.77001953125,-1.03759765625,1.15966796875,1488,2169,-3849,12488,186,3444,68.5986328125,1.021728515625,18.91845703125,355,3.55,0
271,31698,0.787,90690,787,0,-46,2013,-335,-0.0224609375,0.98291015625,-0.16357421875,-14,22,11,-0.8544921875,1.3427734375,0.67138671875,-5190,1478,-1993,18076,235,-12718,99.29443359375,1.2908935546875,-69.862060546875,348,3.48,0
272,31699,0.788,90691,788,1,-47,2007,-446,-0.02294921875,0.97998046875,-0.2177734375,9,6,4,0.54931640625,0.3662109375,0.244140625,-1184,910,5743,18640,356,-30777,102.392578125,1.95556640625,-169.0631103515625,355,3.55,0
273,31700,0.789,90692,789,2,-52,1900,753,-0.025390625,0.927734375,0.36767578125,-26,-18,20,-1.5869140625,-1.0986328125,1.220703125,1480,2162,-3825,12487,185,3443,68.5931396484375,1.0162353515625,18.9129638671875,355,3.55,0
274,31701,0.794,90697,794,0,-50,2018,-341,-0.0244140625,0.9853515625,-0.16650390625,-11,28,11,-0.67138671875,1.708984375,0.67138671875,-5182,1458,-1975,18075,234,-12716,99.2889404296875,1.285400390625,-69.85107421875,348,3.48,0
275,31702,0.795,90698,795,1,-49,2006,-443,-0.02392578125,0.9794921875,-0.21630859375,3,16,7,0.18310546875,0.9765625,0.42724609375,-1185,943,5750,18640,355,-30774,102.392578125,1.9500732421875,-169.046630859375,355,3.55,0
276,31703,0.796,90699,796,2,-51,1898,754,-0.02490234375,0.9267578125,0.3681640625,-19,-18,20,-1.15966796875,-1.0986328125,1.220703125,1464,2170,-3788,12486,184,3443,68.587646484375,1.0107421875,18.9129638671875,355,3.55,0
277,31704,0.801,90704,801,0,-54,2019,-343,-0.0263671875,0.98583984375,-0.16748046875,-9,37,12,-0.54931640625,2.25830078125,0.732421875,-5172,1442,-1978,18075,233,-12710,99.2889404296875,1.2799072265625,-69.818115234375,349,3.49,0
278,31705,0.802,90705,802,1,-44,2005,-441,-0.021484375,0.97900390625,-0.21533203125,0,22,6,0.0,1.3427734375,0.3662109375,-1200,958,5746,18640,355,-30773,102.392578125,1.9500732421875,-169.0411376953125,355,3.55,0
279,31706,0.809,90712,809,2,-49,1895,757,-0.02392578125,0.92529296875,0.36962890625,-13,-12,22,-0.79345703125,-0.732421875,1.3427734375,1464,2187,-3822,12485,183,3442,68.5821533203125,1.0052490234375,18.907470703125,355,3.55,0
280,31707,0.809,90712,809,0,-56,2021,-349,-0.02734375,0.98681640625,-0.17041015625,-7,38,9,-0.42724609375,2.3193359375,0.54931640625,-5182,1469,-1961,18075,232,-12707,99.2889404296875,1.2744140625,-69.8016357421875,349,3.49,0
281,31708,0.809,90712,809,1,-44,2003,-447,-0.021484375,0.97802734375,-0.21826171875,-4,25,4,-0.244140625,1.52587890625,0.244140625,-1183,957,5743,18639,354,-30771,102.3870849609375,1.944580078125,-169.0301513671875,355,3.55,0
282,31709,0.81,90713,810,2,-48,1895,760,-0.0234375,0.92529296875,0.37109375,-10,-9,21,-0.6103515625,-0.54931640625,1.28173828125,1478,2169,-3825,12485,183,3442,68.5821533203125,1.0052490234375,18.907470703125,355,3.55,0
283,31710,0.815,90718,815,0,-57,2024,-350,-0.02783203125,0.98828125,-0.1708984375,-7,39,6,-0.42724609375,2.38037109375,0.3662109375,-5191,1457,-1947,18075,232,-12704,99.2889404296875,1.2744140625,-69.78515625,349,3.49,0
284,31711,0.816,90719,816,1,-42,1991,-448,-0.0205078125,0.97216796875,-0.21875,-13,27,7,-0.79345703125,1.64794921875,0.42724609375,-1178,958,5766,18638,353,-30768,102.381591796875,1.9390869140625,-169.013671875,355,3.55,0
285,31712,0.817,90720,817,2,-50,1895,760,-0.0244140625,0.92529296875,0.37109375,4,-13,22,0.244140625,-0.79345703125,1.3427734375,1473,2172,-3808,12485,183,3442,68.5821533203125,1.0052490234375,18.907470703125,355,3.55,0
286,31713,0.822,90725,822,0,-55,2021,-363,-0.02685546875,0.98681640625,-0.17724609375,-5,26,3,-0.30517578125,1.5869140625,0.18310546875,-5196,1436,-1976,18075,232,-12700,99.2889404296875,1.2744140625,-69.76318359375,349,3.49,0
287,31714,0.823,90726,823,1,-42,1988,-450,-0.0205078125,0.970703125,-0.2197265625,-11,23,7,-0.67138671875,1.40380859375,0.42724609375,-1194,955,5790,18637,353,-30767,102.3760986328125,1.9390869140625,-169.0081787109375,355,3.55,0
288,31715,0.824,90727,824,2,-51,1897,757,-0.02490234375,0.92626953125,0.36962890625,7,-10,21,0.42724609375,-0.6103515625,1.28173828125,1480,2192,-3794,12482,185,3442,68.565673828125,1.0162353515625,18.907470703125,355,3.55,0
289,31716,0.829,90732,829,0,-49,2019,-362,-0.02392578125,0.98583984375,-0.1767578125,-3,15,3,-0.18310546875,0.91552734375,0.18310546875,-5193,1438,-1963,18076,232,-12698,99.29443359375,1.2744140625,-69.752197265625,349,3.49,0
290,31717,0.83,90733,830,1,-44,1982,-455,-0.021484375,0.9677734375,-0.22216796875,-2,10,7,-0.1220703125,0.6103515625,0.42724609375,-1169,948,5797,18636,352,-30765,102.37060546875,1.93359375,-168.9971923828125,354,3.54,0
291,31718,0.831,90734,831,2,-53,1898,754,-0.02587890625,0.9267578125,0.3681640625,7,-4,19,0.42724609375,-0.244140625,1.15966796875,1484,2180,-3797,12482,185,3442,68.565673828125,1.0162353515625,18.907470703125,355,3.55,0
292,31719,0.836,90739,836,0,-37,2018,-360,-0.01806640625,0.9853515625,-0.17578125,-10,-10,-7,-0.6103515625,-0.6103515625,-0.42724609375,-5200,1418,-1942,18075,233,-12698,99.2889404296875,1.2799072265625,-69.752197265625,349,3.49,0
293,31720,0.837,90740,837,1,-43,1979,-457,-0.02099609375,0.96630859375,-0.22314453125,1,4,6,0.06103515625,0.244140625,0.3662109375,-1174,955,5755,18636,351,-30765,102.37060546875,1.9281005859375,-168.9971923828125,354,3.54,0
294,31721,0.838,90741,838,2,-56,1902,753,-0.02734375,0.9287109375,0.36767578125,13,-8,16,0.79345703125,-0.48828125,0.9765625,1472,2171,-3760,12482,185,3442,68.565673828125,1.0162353515625,18.907470703125,355,3.55,0
295,31722,0.843,90746,843,0,-29,2019,-355,-0.01416015625,0.98583984375,-0.17333984375,-12,-16,-7,-0.732421875,-0.9765625,-0.42724609375,-5200,1439,-1979,18075,234,-12698,99.2889404296875,1.285400390625,-69.752197265625,349,3.49,0
296,31723,0.844,90747,844,1,-47,1983,-465,-0.02294921875,0.96826171875,-0.22705078125,4,-5,8,0.244140625,-0.30517578125,0.48828125,-1184,954,5782,18636,351,-30765,102.37060546875,1.9281005859375,-168.9971923828125,354,3.54,0
297,31724,0.845,90748,845,2,-56,1904,752,-0.02734375,0.9296875,0.3671875,19,-9,15,1.15966796875,-0.54931640625,0.91552734375,1496,2192,-3781,12480,185,3442,68.5546875,1.0162353515625,18.907470703125,355,3.55,0
298,31725,0.85,90753,850,0,-21,2016,-360,-0.01025390625,0.984375,-0.17578125,-13,-18,-8,-0.79345703125,-1.0986328125,-0.48828125,-5189,1448,-2005,18075,235,-12698,99.2889404296875,1.2908935546875,-69.752197265625,349,3.49,0
299,31726,0.851,90754,851,1,-49,1991,-476,-0.02392578125,0.97216796875,-0.232421875,3,-24,5,0.18310546875,-1.46484375,0.30517578125,-1153,942,5792,18636,351,-30767,102.37060546875,1.9281005859375,-169.0081787109375,354,3.54,0
300,31727,0.852,90755,852,2,-54,1913,746,-0.0263671875,0.93408203125,0.3642578125,19,-8,13,1.15966796875,-0.48828125,0.79345703125,1511,2241,-3761,12480,185,3442,68.5546875,1.0162353515625,18.907470703125,355,3.55,0
301,31728,0.857,90760,857,0,-16,2009,-357,-0.0078125,0.98095703125,-0.17431640625,-11,-12,-4,-0.67138671875,-0.732421875,-0.244140625,-5218,1443,-2055,18074,236,-12697,99.283447265625,1.29638671875,-69.7467041015625,349,3.49,0
302,31729,0.858,90761,858,1,-50,1993,-476,-0.0244140625,0.97314453125,-0.232421875,2,-31,9,0.1220703125,-1.89208984375,0.54931640625,-1141,942,5785,18636,351,-30768,102.37060546875,1.9281005859375,-169.013671875,354,3.54,0
303,31730,0.859,90762,859,2,-52,1919,741,-0.025390625,0.93701171875,0.36181640625,10,-9,11,0.6103515625,-0.54931640625,0.67138671875,1498,2210,-3789,12480,185,3442,68.5546875,1.0162353515625,18.907470703125,355,3.55,0
304,31731,0.864,90767,864,0,-13,2007,-360,-0.00634765625,0.97998046875,-0.17578125,-13,-11,-2,-0.79345703125,-0.67138671875,-0.1220703125,-5232,1433,-2016,18074,236,-12697,99.283447265625,1.29638671875,-69.7467041015625,349,3.49,0
305,31732,0.865,90768,865,1,-58,1986,-478,-0.0283203125,0.9697265625,-0.2333984375,5,-41,10,0.30517578125,-2.50244140625,0.6103515625,-1136,923,5762,18636,351,-30772,102.37060546875,1.9281005859375,-169.03564453125,354,3.54,0
306,31733,0.866,90769,866,2,-51,1923,737,-0.02490234375,0.93896484375,0.35986328125,-2,-9,10,-0.1220703125,-0.54931640625,0.6103515625,1490,2187,-3789,12480,186,3442,68.5546875,1.021728515625,18.907470703125,355,3.55,0
307,31734,0.873,90776,873,0,-13,2007,-360,-0.00634765625,0.97998046875,-0.17578125,-13,-11,-2,-0.79345703125,-0.67138671875,-0.1220703125,-5232,1433,-2016,18074,236,-12697,99.283447265625,1.29638671875,-69.7467041015625,349,3.49,0
308,31735,0.873,90776,873,1,-56,1990,-475,-0.02734375,0.9716796875,-0.23193359375,2,-42,10,0.1220703125,-2.5634765625,0.6103515625,-1162,938,5780,18636,351,-30774,102.37060546875,1.9281005859375,-169.046630859375,354,3.54,0
309,31736,0.873,90776,873,2,-51,1925,738,-0.02490234375,0.93994140625,0.3603515625,-7,-8,6,-0.42724609375,-0.48828125,0.3662109375,1461,2206,-3811,12480,186,3442,68.5546875,1.021728515625,18.907470703125,355,3.55,0
310,31737,0.878,90781,878,0,-8,2010,-365,-0.00390625,0.9814453125,-0.17822265625,-25,-9,6,-1.52587890625,-0.54931640625,0.3662109375,-5254,1449,-1965,18071,237,-12696,99.2669677734375,1.3018798828125,-69.7412109375,349,3.49,0
311,31738,0.879,90782,879,1,-58,1984,-473,-0.0283203125,0.96875,-0.23095703125,-1,-45,14,-0.06103515625,-2.74658203125,0.8544921875,-1149,936,5790,18635,351,-30777,102.3651123046875,1.9281005859375,-169.0631103515625,354,3.54,0
312,31739,0.88,90783,880,2,-53,1925,739,-0.02587890625,0.93994140625,0.36083984375,1,-12,6,0.06103515625,-0.732421875,0.3662109375,1475,2197,-3806,12480,186,3442,68.5546875,1.021728515625,18.907470703125,355,3.55,0
313,31740,0.885,90788,885,0,-6,2006,-366,-0.0029296875,0.9794921875,-0.1787109375,-26,-11,7,-1.5869140625,-0.67138671875,0.42724609375,-5258,1445,-1980,18070,237,-12696,99.261474609375,1.3018798828125,-69.7412109375,349,3.49,0
314,31741,0.886,90789,886,1,-60,1981,-474,-0.029296875,0.96728515625,-0.2314453125,5,-43,13,0.30517578125,-2.62451171875,0.79345703125,-1165,943,5797,18635,350,-30781,102.3651123046875,1.922607421875,-169.0850830078125,354,3.54,0
315,31742,0.887,90790,887,2,-53,1926,737,-0.02587890625,0.9404296875,0.35986328125,6,-16,7,0.3662109375,-0.9765625,0.42724609375,1464,2180,-3817,12479,186,3442,68.5491943359375,1.021728515625,18.907470703125,355,3.55,0
316,31743,0.892,90795,892,0,-2,2008,-368,-0.0009765625,0.98046875,-0.1796875,-25,-19,11,-1.52587890625,-1.15966796875,0.67138671875,-5259,1441,-2034,18068,237,-12697,99.25048828125,1.3018798828125,-69.7467041015625,350,3.5,0
317,31744,0.893,90796,893,1,-68,1978,-471,-0.033203125,0.9658203125,-0.22998046875,5,-40,10,0.30517578125,-2.44140625,0.6103515625,-1184,953,5779,18635,350,-30783,102.3651123046875,1.922607421875,-169.0960693359375,354,3.54,0
318,31745,0.894,90797,894,2,-49,1932,726,-0.02392578125,0.943359375,0.3544921875,-8,-12,7,-0.48828125,-0.732421875,0.42724609375,1483,2187,-3824,12479,186,3442,68.5491943359375,1.021728515625,18.907470703125,356,3.56,0
319,31746,0.899,90802,899,0,0,2004,-366,0.0,0.978515625,-0.1787109375,-24,-22,11,-1.46484375,-1.3427734375,0.67138671875,-5265,1426,-2030,18067,236,-12697,99.2449951171875,1.29638671875,-69.7467041015625,350,3.5,0
320,31747,0.911,90814,911,1,-73,1970,-464,-0.03564453125,0.9619140625,-0.2265625,4,-32,9,0.244140625,-1.953125,0.54931640625,-1172,965,5792,18635,350,-30786,102.3651123046875,1.922607421875,-169.112548828125,354,3.54,0
321,31748,0.911,90814,911,2,-42,1931,725,-0.0205078125,0.94287109375,0.35400390625,-15,-10,7,-0.91552734375,-0.6103515625,0.42724609375,1493,2207,-3823,12479,186,3442,68.5491943359375,1.021728515625,18.907470703125,356,3.56,0
322,31749,0.913,90816,913,0,-8,2004,-361,-0.00390625,0.978515625,-0.17626953125,-14,-25,16,-0.8544921875,-1.52587890625,0.9765625,-5251,1437,-2039,18065,235,-12699,99.2340087890625,1.2908935546875,-69.7576904296875,350,3.5,0
323,31750,0.914,90817,914,1,-65,1964,-450,-0.03173828125,0.958984375,-0.2197265625,7,-21,3,0.42724609375,-1.28173828125,0.18310546875,-1185,993,5825,18635,350,-30787,102.3651123046875,1.922607421875,-169.1180419921875,354,3.54,0
324,31751,0.915,90818,915,2,-41,1929,727,-0.02001953125,0.94189453125,0.35498046875,-9,-11,8,-0.54931640625,-0.67138671875,0.48828125,1495,2185,-3817,12479,186,3442,68.5491943359375,1.021728515625,18.907470703125,356,3.56,0
325,31752,0.92,90823,920,0,-12,2003,-362,-0.005859375,0.97802734375,-0.1767578125,-11,-23,18,-0.67138671875,-1.40380859375,1.0986328125,-5248,1446,-2000,18065,235,-12700,99.2340087890625,1.2908935546875,-69.76318359375,350,3.5,0
326,31753,0.921,90824,921,1,-63,1966,-451,-0.03076171875,0.9599609375,-0.22021484375,20,-6,-3,1.220703125,-0.3662109375,-0.18310546875,-1259,1030,5867,18637,351,-30787,102.3760986328125,1.9281005859375,-169.1180419921875,354,3.54,0
327,31754,0.922,90825,922,2,-41,1927,726,-0.02001953125,0.94091796875,0.3544921875,-8,-10,9,-0.48828125,-0.6103515625,0.54931640625,1499,2177,-3883,12479,186,3442,68.5491943359375,1.021728515625,18.907470703125,356,3.56,0
328,31755,0.927,90830,927,0,-23,2010,-360,-0.01123046875,0.9814453125,-0.17578125,-2,-18,15,-0.1220703125,-1.0986328125,0.91552734375,-5276,1446,-2009,18065,234,-12701,99.2340087890625,1.285400390625,-69.7686767578125,350,3.5,0
329,31756,0.928,90831,928,1,-58,1976,-450,-0.0283203125,0.96484375,-0.2197265625,17,2,-7,1.03759765625,0.1220703125,-0.42724609375,-1291,1045,5885,18637,351,-30786,102.3760986328125,1.9281005859375,-169.112548828125,354,3.54,0
330,31757,0.929,90832,929,2,-41,1925,722,-0.02001953125,0.93994140625,0.3525390625,-20,-6,10,-1.220703125,-0.3662109375,0.6103515625,1514,2179,-3867,12479,187,3442,68.5491943359375,1.0272216796875,18.907470703125,356,3.56,0
331,31758,0.934,90837,934,0,-26,2010,-366,-0.0126953125,0.9814453125,-0.1787109375,-3,-21,14,-0.18310546875,-1.28173828125,0.8544921875,-5279,1445,-2008,18066,234,-12701,99.239501953125,1.285400390625,-69.7686767578125,350,3.5,0
332,31759,0.935,90838,935,1,-50,1981,-449,-0.0244140625,0.96728515625,-0.21923828125,12,8,-11,0.732421875,0.48828125,-0.67138671875,-1308,1044,5874,18638,352,-30785,102.381591796875,1.93359375,-169.1070556640625,354,3.54,0
333,31760,0.936,90839,936,2,-40,1922,722,-0.01953125,0.9384765625,0.3525390625,-25,-5,10,-1.52587890625,-0.30517578125,0.6103515625,1529,2197,-3877,12479,187,3442,68.5491943359375,1.0272216796875,18.907470703125,356,3.56,0
334,31761,0.941,90844,941,0,-29,2010,-366,-0.01416015625,0.9814453125,-0.1787109375,-1,-21,12,-0.06103515625,-1.28173828125,0.732421875,-5290,1426,-2004,18066,233,-12702,99.239501953125,1.2799072265625,-69.774169921875,350,3.5,0
335,31762,0.942,90845,942,1,-46,1983,-450,-0.0224609375,0.96826171875,-0.2197265625,11,8,-13,0.67138671875,0.48828125,-0.79345703125,-1312,1029,5872,18639,353,-30784,102.3870849609375,1.9390869140625,-169.1015625,354,3.54,0
336,31763,0.943,90846,943,2,-37,1911,728,-0.01806640625,0.93310546875,0.35546875,-21,-6,10,-1.28173828125,-0.3662109375,0.6103515625,1505,2198,-3866,12479,187,3442,68.5491943359375,1.0272216796875,18.907470703125,356,3.56,0
337,31764,0.948,90851,948,0,-31,2011,-364,-0.01513671875,0.98193359375,-0.177734375,-1,-23,8,-0.06103515625,-1.40380859375,0.48828125,-5271,1422,-1993,18067,233,-12703,99.2449951171875,1.2799072265625,-69.7796630859375,350,3.5,0
338,31765,0.949,90852,949,1,-36,1982,-458,-0.017578125,0.9677734375,-0.2236328125,11,8,-13,0.67138671875,0.48828125,-0.79345703125,-1295,1028,5851,18639,354,-30783,102.3870849609375,1.944580078125,-169.0960693359375,354,3.54,0
339,31766,0.95,90853,950,2,-35,1906,731,-0.01708984375,0.9306640625,0.35693359375,-17,-5,9,-1.03759765625,-0.30517578125,0.54931640625,1488,2212,-3837,12479,187,3442,68.5491943359375,1.0272216796875,18.907470703125,356,3.56,0
340,31767,0.955,90858,955,0,-33,2007,-366,-0.01611328125,0.97998046875,-0.1787109375,-2,-22,6,-0.1220703125,-1.3427734375,0.3662109375,-5272,1405,-1996,18067,233,-12703,99.2449951171875,1.2799072265625,-69.7796630859375,350,3.5,0
341,31768,0.956,90859,956,1,-34,1989,-462,-0.0166015625,0.97119140625,-0.2255859375,11,6,-11,0.67138671875,0.3662109375,-0.67138671875,-1316,1033,5858,18640,355,-30781,102.392578125,1.9500732421875,-169.0850830078125,354,3.54,0
342,31769,0.957,90860,957,2,-34,1901,735,-0.0166015625,0.92822265625,0.35888671875,-16,-5,8,-0.9765625,-0.30517578125,0.48828125,1501,2219,-3841,12479,187,3442,68.5491943359375,1.0272216796875,18.907470703125,356,3.56,0
343,31770,0.962,90865,962,0,-37,2009,-359,-0.01806640625,0.98095703125,-0.17529296875,2,-19,9,0.1220703125,-1.15966796875,0.54931640625,-5269,1439,-2034,18067,233,-12704,99.2449951171875,1.2799072265625,-69.78515625,350,3.5,0
344,31771,0.97,90873,970,1,-28,1991,-458,-0.013671875,0.97216796875,-0.2236328125,10,6,-7,0.6103515625,0.3662109375,-0.42724609375,-1321,1037,5837,18641,355,-30781,102.3980712890625,1.9500732421875,-169.0850830078125,354,3.54,0
345,31772,0.97,90873,970,2,-33,1895,739,-0.01611328125,0.92529296875,0.36083984375,-21,-6,6,-1.28173828125,-0.3662109375,0.3662109375,1503,2234,-3859,12479,187,3442,68.5491943359375,1.0272216796875,18.907470703125,356,3.56,0
346,31773,0.97,90873,970,0,-39,2012,-358,-0.01904296875,0.982421875,-0.1748046875,1,-14,11,0.06103515625,-0.8544921875,0.67138671875,-5297,1439,-2047,18071,222,-12704,99.2669677734375,1.219482421875,-69.78515625,350,3.5,0
347,31774,0.97,90873,970,1,-25,1991,-455,-0.01220703125,0.97216796875,-0.22216796875,12,5,-9,0.732421875,0.30517578125,-0.54931640625,-1288,1044,5844,18641,356,-30780,102.3980712890625,1.95556640625,-169.07958984375,354,3.54,0
348,31775,0.971,90874,971,2,-32,1892,741,-0.015625,0.923828125,0.36181640625,-22,-7,7,-1.3427734375,-0.42724609375,0.42724609375,1490,2231,-3861,12479,187,3442,68.5491943359375,1.0272216796875,18.907470703125,356,3.56,0
349,31776,0.976,90879,976,0,-41,2011,-356,-0.02001953125,0.98193359375,-0.173828125,1,-12,11,0.06103515625,-0.732421875,0.67138671875,-5291,1439,-2021,18071,222,-12704,99.2669677734375,1.219482421875,-69.78515625,350,3.5,0
350,31777,0.977,90880,977,1,-25,1997,-446,-0.01220703125,0.97509765625,-0.2177734375,8,9,0,0.48828125,0.54931640625,0.0,-1299,1052,5859,18641,356,-30779,102.3980712890625,1.95556640625,-169.0740966796875,354,3.54,0
351,31778,0.978,90881,978,2,-29,1889,746,-0.01416015625,0.92236328125,0.3642578125,-15,-4,6,-0.91552734375,-0.244140625,0.3662109375,1479,2243,-3858,12479,187,3442,68.5491943359375,1.0272216796875,18.907470703125,357,3.57,0
352,31779,0.983,90886,983,0,-46,2016,-354,-0.0224609375,0.984375,-0.1728515625,-2,-10,11,-0.1220703125,-0.6103515625,0.67138671875,-5280,1437,-2095,18071,222,-12705,99.2669677734375,1.219482421875,-69.7906494140625,350,3.5,0
353,31780,0.984,90887,984,1,-20,1995,-439,-0.009765625,0.97412109375,-0.21435546875,3,10,3,0.18310546875,0.6103515625,0.18310546875,-1322,1035,5889,18641,356,-30779,102.3980712890625,1.95556640625,-169.0740966796875,354,3.54,0
354,31781,0.985,90888,985,2,-28,1889,748,-0.013671875,0.92236328125,0.365234375,-13,-5,6,-0.79345703125,-0.30517578125,0.3662109375,1475,2244,-3887,12478,187,3442,68.543701171875,1.0272216796875,18.907470703125,357,3.57,0
355,31782,0.99,90893,990,0,-52,2014,-351,-0.025390625,0.9833984375,-0.17138671875,-4,-12,11,-0.244140625,-0.732421875,0.67138671875,-5297,1461,-2058,18072,222,-12705,99.2724609375,1.219482421875,-69.7906494140625,350,3.5,0
356,31783,0.991,90894,991,1,-25,1996,-435,-0.01220703125,0.974609375,-0.21240234375,6,9,5,0.3662109375,0.54931640625,0.30517578125,-1294,1035,5900,18648,347,-30779,102.4365234375,1.9061279296875,-169.0740966796875,354,3.54,0
357,31784,0.992,90895,992,2,-28,1891,749,-0.013671875,0.92333984375,0.36572265625,-11,-5,6,-0.67138671875,-0.30517578125,0.3662109375,1480,2222,-3914,12478,187,3442,68.543701171875,1.0272216796875,18.907470703125,357,3.57,0
358,31785,0.998,90901,998,1,-34,2000,-434,-0.0166015625,0.9765625,-0.2119140625,4,10,6,0.244140625,0.6103515625,0.3662109375,-1276,1026,5865,18648,347,-30778,102.4365234375,1.9061279296875,-169.068603515625,354,3.54,0
359,31786,0.999,90902,999,2,-28,1897,749,-0.013671875,0.92626953125,0.36572265625,-13,-4,8,-0.79345703125,-0.244140625,0.48828125,1491,2209,-3916,12478,187,3442,68.543701171875,1.0272216796875,18.907470703125,357,3.57,0
360,31787,1.014,90917,1014,0,-47,2014,-352,-0.02294921875,0.9833984375,-0.171875,-8,-25,12,-0.48828125,-1.52587890625,0.732421875,-5298,1428,-2041,18072,222,-12706,99.2724609375,1.219482421875,-69.796142578125,350,3.5,0
361,31788,1.014,90917,1014,1,-38,2000,-432,-0.0185546875,0.9765625,-0.2109375,3,9,7,0.18310546875,0.54931640625,0.42724609375,-1261,1028,5851,18648,347,-30778,102.4365234375,1.9061279296875,-169.068603515625,354,3.54,0
362,31789,1.014,90917,1014,2,-29,1905,747,-0.01416015625,0.93017578125,0.36474609375,-14,-5,12,-0.8544921875,-0.30517578125,0.732421875,1490,2189,-3872,12478,187,3442,68.543701171875,1.0272216796875,18.907470703125,357,3.57,0
363,31790,1.018,90921,1018,0,-46,2017,-351,-0.0224609375,0.98486328125,-0.17138671875,-12,-18,10,-0.732421875,-1.0986328125,0.6103515625,-5281,1427,-1955,18072,221,-12707,99.2724609375,1.2139892578125,-69.8016357421875,350,3.5,0
364,31791,1.019,90922,1019,1,-64,1998,-434,-0.03125,0.9755859375,-0.2119140625,2,0,6,0.1220703125,0.0,0.3662109375,-1198,1020,5848,18648,345,-30778,102.4365234375,1.8951416015625,-169.068603515625,354,3.54,0
365,31792,1.02,90923,1020,2,-31,1910,744,-0.01513671875,0.9326171875,0.36328125,-17,-5,15,-1.03759765625,-0.30517578125,0.91552734375,1506,2177,-3857,12478,187,3442,68.543701171875,1.0272216796875,18.907470703125,357,3.57,0
366,31793,1.025,90928,1025,0,-45,2015,-354,-0.02197265625,0.98388671875,-0.1728515625,-12,-17,8,-0.732421875,-1.03759765625,0.48828125,-5287,1416,-1971,18072,221,-12707,99.2724609375,1.2139892578125,-69.8016357421875,350,3.5,0
367,31794,1.026,90929,1026,1,-72,1995,-439,-0.03515625,0.97412109375,-0.21435546875,-1,2,7,-0.06103515625,0.1220703125,0.42724609375,-1224,1008,5830,18649,345,-30778,102.4420166015625,1.8951416015625,-169.068603515625,354,3.54,0
368,31795,1.035,90938,1035,2,-32,1912,743,-0.015625,0.93359375,0.36279296875,-19,-4,16,-1.15966796875,-0.244140625,0.9765625,1516,2157,-3854,12477,187,3442,68.5382080078125,1.0272216796875,18.907470703125,357,3.57,0
369,31796,1.035,90938,1035,0,-45,2015,-354,-0.02197265625,0.98388671875,-0.1728515625,-12,-17,8,-0.732421875,-1.03759765625,0.48828125,-5287,1416,-1971,18072,221,-12707,99.2724609375,1.2139892578125,-69.8016357421875,350,3.5,0
370,31797,1.035,90938,1035,1,-76,1987,-441,-0.037109375,0.97021484375,-0.21533203125,-6,3,6,-0.3662109375,0.18310546875,0.3662109375,-1261,994,5786,18649,345,-30778,102.4420166015625,1.8951416015625,-169.068603515625,354,3.54,0
371,31798,1.035,90938,1035,2,-35,1913,744,-0.01708984375,0.93408203125,0.36328125,-12,1,17,-0.732421875,0.06103515625,1.03759765625,1503,2152,-3865,12477,187,3442,68.5382080078125,1.0272216796875,18.907470703125,358,3.58,0
372,31799,1.039,90942,1039,0,-41,2007,-365,-0.02001953125,0.97998046875,-0.17822265625,-15,-11,2,-0.91552734375,-0.67138671875,0.1220703125,-5270,1434,-1976,18072,221,-12707,99.2724609375,1.2139892578125,-69.8016357421875,350,3.5,0
373,31800,1.04,90943,1040,1,-82,1988,-445,-0.0400390625,0.970703125,-0.21728515625,-5,0,4,-0.30517578125,0.0,0.244140625,-1258,1001,5775,18649,345,-30778,102.4420166015625,1.8951416015625,-169.068603515625,354,3.54,0
374,31801,1.041,90944,1041,2,-38,1915,743,-0.0185546875,0.93505859375,0.36279296875,-8,0,18,-0.48828125,0.0,1.0986328125,1513,2151,-3899,12477,187,3442,68.5382080078125,1.0272216796875,18.907470703125,358,3.58,0
375,31802,1.046,90949,1046,0,-41,2007,-366,-0.02001953125,0.97998046875,-0.1787109375,-15,-12,1,-0.91552734375,-0.732421875,0.06103515625,-5284,1422,-1954,18072,221,-12707,99.2724609375,1.2139892578125,-69.8016357421875,350,3.5,0
376,31803,1.047,90950,1047,1,-82,1981,-449,-0.0400390625,0.96728515625,-0.21923828125,-1,-5,3,-0.06103515625,-0.30517578125,0.18310546875,-1277,971,5819,18649,344,-30778,102.4420166015625,1.8896484375,-169.068603515625,354,3.54,0
377,31804,1.048,90951,1048,2,-39,1917,740,-0.01904296875,0.93603515625,0.361328125,-8,-2,20,-0.48828125,-0.1220703125,1.220703125,1518,2156,-3885,12477,187,3442,68.5382080078125,1.0272216796875,18.907470703125,358,3.58,0
378,31805,1.053,90956,1053,0,-33,2005,-366,-0.01611328125,0.97900390625,-0.1787109375,-13,-9,0,-0.79345703125,-0.54931640625,0.0,-5283,1408,-1967,18072,221,-12707,99.2724609375,1.2139892578125,-69.8016357421875,350,3.5,0
379,31806,1.054,90957,1054,1,-87,1978,-451,-0.04248046875,0.9658203125,-0.22021484375,-1,-9,5,-0.06103515625,-0.54931640625,0.30517578125,-1259,962,5809,18649,344,-30778,102.4420166015625,1.8896484375,-169.068603515625,354,3.54,0
380,31807,1.055,90958,1055,2,-37,1919,733,-0.01806640625,0.93701171875,0.35791015625,-16,4,21,-0.9765625,0.244140625,1.28173828125,1497,2175,-3891,12477,187,3442,68.5382080078125,1.0272216796875,18.907470703125,358,3.58,0
381,31808,1.06,90963,1060,0,-32,2008,-372,-0.015625,0.98046875,-0.181640625,-13,-6,-2,-0.79345703125,-0.3662109375,-0.1220703125,-5269,1408,-2000,18072,221,-12708,99.2724609375,1.2139892578125,-69.80712890625,350,3.5,0
382,31809,1.061,90964,1061,1,-76,1973,-452,-0.037109375,0.96337890625,-0.220703125,1,-14,1,0.06103515625,-0.8544921875,0.06103515625,-1246,944,5797,18649,344,-30777,102.4420166015625,1.8896484375,-169.0631103515625,354,3.54,0
383,31810,1.062,90965,1062,2,-35,1918,733,-0.01708984375,0.9365234375,0.35791015625,-19,5,22,-1.15966796875,0.30517578125,1.3427734375,1500,2201,-3934,12477,187,3442,68.5382080078125,1.0272216796875,18.907470703125,358,3.58,0
384,31811,1.074,90977,1074,0,-32,2008,-372,-0.015625,0.98046875,-0.181640625,-13,-6,-2,-0.79345703125,-0.3662109375,-0.1220703125,-5269,1408,-2000,18072,221,-12708,99.2724609375,1.2139892578125,-69.80712890625,350,3.5,0
385,31812,1.075,90978,1075,1,-66,1975,-461,-0.0322265625,0.96435546875,-0.22509765625,4,-15,-1,0.244140625,-0.91552734375,-0.06103515625,-1253,957,5801,18649,344,-30777,102.4420166015625,1.8896484375,-169.0631103515625,354,3.54,0
386,31813,1.076,90979,1076,2,-35,1913,734,-0.01708984375,0.93408203125,0.3583984375,-14,2,23,-0.8544921875,0.1220703125,1.40380859375,1503,2204,-3978,12476,187,3442,68.53271484375,1.0272216796875,18.907470703125,358,3.58,0
387,31814,1.081,90984,1081,0,-26,2008,-362,-0.0126953125,0.98046875,-0.1767578125,-9,-2,-2,-0.54931640625,-0.1220703125,-0.1220703125,-5250,1401,-1979,18073,221,-12709,99.2779541015625,1.2139892578125,-69.8126220703125,350,3.5,0
388,31815,1.082,90985,1082,1,-61,1979,-463,-0.02978515625,0.96630859375,-0.22607421875,5,-12,1,0.30517578125,-0.732421875,0.06103515625,-1240,971,5797,18649,344,-30777,102.4420166015625,1.8896484375,-169.0631103515625,354,3.54,0
389,31816,1.083,90986,1083,2,-34,1913,732,-0.0166015625,0.93408203125,0.357421875,-15,7,23,-0.91552734375,0.42724609375,1.40380859375,1500,2193,-3920,12476,187,3442,68.53271484375,1.0272216796875,18.907470703125,358,3.58,0
390,31817,1.088,90991,1088,0,-20,2011,-359,-0.009765625,0.98193359375,-0.17529296875,-12,-8,4,-0.732421875,-0.48828125,0.244140625,-5251,1416,-2014,18073,221,-12709,99.2779541015625,1.2139892578125,-69.8126220703125,350,3.5,0
391,31818,1.089,90992,1089,1,-55,1981,-466,-0.02685546875,0.96728515625,-0.2275390625,8,-9,-1,0.48828125,-0.54931640625,-0.06103515625,-1230,976,5808,18650,344,-30777,102.447509765625,1.8896484375,-169.0631103515625,354,3.54,0
392,31819,1.09,90993,1090,2,-31,1913,730,-0.01513671875,0.93408203125,0.3564453125,-14,15,23,-0.8544921875,0.91552734375,1.40380859375,1483,2202,-3888,12476,187,3442,68.53271484375,1.0272216796875,18.907470703125,357,3.57,0
393,31820,1.095,90998,1095,0,-17,2012,-359,-0.00830078125,0.982421875,-0.17529296875,-8,-10,8,-0.48828125,-0.6103515625,0.48828125,-5254,1414,-2030,18073,221,-12709,99.2779541015625,1.2139892578125,-69.8126220703125,350,3.5,0
394,31821,1.096,90999,1096,1,-50,1987,-465,-0.0244140625,0.97021484375,-0.22705078125,9,-9,-1,0.54931640625,-0.54931640625,-0.06103515625,-1224,943,5776,18650,344,-30777,102.447509765625,1.8896484375,-169.0631103515625,354,3.54,0
395,31822,1.097,91000,1097,2,-30,1914,731,-0.0146484375,0.9345703125,0.35693359375,-6,14,24,-0.3662109375,0.8544921875,1.46484375,1482,2224,-3887,12476,187,3442,68.53271484375,1.0272216796875,18.907470703125,357,3.57,0
396,31823,1.102,91005,1102,0,-15,2013,-357,-0.00732421875,0.98291015625,-0.17431640625,-7,-11,6,-0.42724609375,-0.67138671875,0.3662109375,-5255,1424,-2067,18073,221,-12710,99.2779541015625,1.2139892578125,-69.818115234375,350,3.5,0
397,31824,1.103,91006,1103,1,-49,1986,-461,-0.02392578125,0.9697265625,-0.22509765625,11,-7,3,0.67138671875,-0.42724609375,0.18310546875,-1241,934,5776,18650,344,-30776,102.447509765625,1.8896484375,-169.0576171875,355,3.55,0
398,31825,1.104,91007,1104,2,-29,1918,727,-0.01416015625,0.9365234375,0.35498046875,-9,14,23,-0.54931640625,0.8544921875,1.40380859375,1461,2234,-3962,12476,187,3442,68.53271484375,1.0272216796875,18.907470703125,356,3.56,0
399,31826,1.109,91012,1109,0,-13,2011,-347,-0.00634765625,0.98193359375,-0.16943359375,-6,-14,11,-0.3662109375,-0.8544921875,0.67138671875,-5229,1405,-2049,18073,220,-12710,99.2779541015625,1.20849609375,-69.818115234375,350,3.5,0
400,31827,1.11,91013,1110,1,-44,1982,-459,-0.021484375,0.9677734375,-0.22412109375,9,-5,2,0.54931640625,-0.30517578125,0.1220703125,-1236,931,5789,18650,344,-30776,102.447509765625,1.8896484375,-169.0576171875,355,3.55,0
401,31828,1.111,91014,1111,2,-29,1920,724,-0.01416015625,0.9375,0.353515625,-16,16,22,-0.9765625,0.9765625,1.3427734375,1475,2213,-3921,12476,187,3442,68.53271484375,1.0272216796875,18.907470703125,356,3.56,0
402,31829,1.116,91019,1116,0,-17,2010,-347,-0.00830078125,0.9814453125,-0.16943359375,-5,-13,10,-0.30517578125,-0.79345703125,0.6103515625,-5217,1405,-2044,18073,220,-12710,99.2779541015625,1.20849609375,-69.818115234375,350,3.5,0
403,31830,1.117,91020,1117,1,-39,1977,-459,-0.01904296875,0.96533203125,-0.22412109375,10,1,0,0.6103515625,0.06103515625,0.0,-1239,950,5837,18650,344,-30776,102.447509765625,1.8896484375,-169.0576171875,355,3.55,0
404,31831,1.118,91021,1118,2,-30,1920,723,-0.0146484375,0.9375,0.35302734375,-21,18,21,-1.28173828125,1.0986328125,1.28173828125,1481,2212,-3896,12476,187,3442,68.53271484375,1.0272216796875,18.907470703125,356,3.56,0
405,31832,1.123,91026,1123,0,-17,2010,-347,-0.00830078125,0.9814453125,-0.16943359375,-5,-13,10,-0.30517578125,-0.79345703125,0.6103515625,-5217,1405,-2044,18073,220,-12710,99.2779541015625,1.20849609375,-69.818115234375,350,3.5,0
406,31833,1.124,91027,1124,1,-34,1983,-455,-0.0166015625,0.96826171875,-0.22216796875,19,3,-4,1.15966796875,0.18310546875,-0.244140625,-1237,963,5877,18650,344,-30776,102.447509765625,1.8896484375,-169.0576171875,355,3.55,0
407,31834,1.125,91028,1125,2,-36,1917,728,-0.017578125,0.93603515625,0.35546875,-18,16,20,-1.0986328125,0.9765625,1.220703125,1468,2217,-3902,12476,187,3442,68.53271484375,1.0272216796875,18.907470703125,355,3.55,0
408,31835,1.132,91035,1132,0,-18,2003,-349,-0.0087890625,0.97802734375,-0.17041015625,-1,-14,14,-0.06103515625,-0.8544921875,0.8544921875,-5181,1432,-2026,18074,220,-12710,99.283447265625,1.20849609375,-69.818115234375,350,3.5,0
409,31836,1.132,91035,1132,1,-29,1985,-456,-0.01416015625,0.96923828125,-0.22265625,19,4,-4,1.15966796875,0.244140625,-0.244140625,-1248,970,5854,18651,344,-30776,102.4530029296875,1.8896484375,-169.0576171875,356,3.56,0
410,31837,1.132,91035,1132,2,-38,1917,731,-0.0185546875,0.93603515625,0.35693359375,-15,15,20,-0.91552734375,0.91552734375,1.220703125,1473,2235,-3920,12476,187,3442,68.53271484375,1.0272216796875,18.907470703125,355,3.55,0
411,31838,1.137,91040,1137,0,-21,2004,-356,-0.01025390625,0.978515625,-0.173828125,0,-13,11,0.0,-0.79345703125,0.67138671875,-5170,1443,-2021,18074,220,-12710,99.283447265625,1.20849609375,-69.818115234375,350,3.5,0
412,31839,1.138,91041,1138,1,-27,1990,-450,-0.01318359375,0.9716796875,-0.2197265625,19,3,-7,1.15966796875,0.18310546875,-0.42724609375,-1256,972,5802,18651,344,-30775,102.4530029296875,1.8896484375,-169.0521240234375,356,3.56,0
413,31840,1.139,91042,1139,2,-41,1916,733,-0.02001953125,0.935546875,0.35791015625,-19,13,20,-1.15966796875,0.79345703125,1.220703125,1461,2251,-3940,12476,187,3442,68.53271484375,1.0272216796875,18.907470703125,355,3.55,0
414,31841,1.144,91047,1144,0,-18,2005,-359,-0.0087890625,0.97900390625,-0.17529296875,1,-8,12,0.06103515625,-0.48828125,0.732421875,-5175,1429,-1995,18074,220,-12711,99.283447265625,1.20849609375,-69.8236083984375,350,3.5,0
415,31842,1.145,91048,1145,1,-24,1995,-452,-0.01171875,0.97412109375,-0.220703125,16,4,-6,0.9765625,0.244140625,-0.3662109375,-1237,966,5806,18651,344,-30775,102.4530029296875,1.8896484375,-169.0521240234375,356,3.56,0
416,31843,1.146,91049,1146,2,-42,1915,732,-0.0205078125,0.93505859375,0.357421875,-22,11,19,-1.3427734375,0.67138671875,1.15966796875,1438,2224,-3940,12476,187,3442,68.53271484375,1.0272216796875,18.907470703125,355,3.55,0
417,31844,1.151,91054,1151,0,-20,2005,-356,-0.009765625,0.97900390625,-0.173828125,4,0,10,0.244140625,0.0,0.6103515625,-5188,1408,-1977,18074,219,-12711,99.283447265625,1.2030029296875,-69.8236083984375,350,3.5,0
418,31845,1.152,91055,1152,1,-27,1989,-450,-0.01318359375,0.97119140625,-0.2197265625,16,5,-3,0.9765625,0.30517578125,-0.18310546875,-1249,978,5808,18651,343,-30775,102.4530029296875,1.8841552734375,-169.0521240234375,356,3.56,0
419,31846,1.153,91056,1153,2,-44,1915,732,-0.021484375,0.93505859375,0.357421875,-26,10,19,-1.5869140625,0.6103515625,1.15966796875,1434,2215,-3943,12476,187,3442,68.53271484375,1.0272216796875,18.907470703125,355,3.55,0
420,31847,1.158,91061,1158,0,-20,2005,-356,-0.009765625,0.97900390625,-0.173828125,4,0,10,0.244140625,0.0,0.6103515625,-5188,1408,-1977,18074,219,-12711,99.283447265625,1.2030029296875,-69.8236083984375,350,3.5,0
421,31848,1.159,91062,1159,1,-25,1990,-452,-0.01220703125,0.9716796875,-0.220703125,19,8,0,1.15966796875,0.48828125,0.0,-1238,983,5782,18651,343,-30775,102.4530029296875,1.8841552734375,-169.0521240234375,356,3.56,0
422,31849,1.16,91063,1160,2,-44,1911,734,-0.021484375,0.93310546875,0.3583984375,-24,12,19,-1.46484375,0.732421875,1.15966796875,1465,2241,-3961,12476,187,3441,68.53271484375,1.0272216796875,18.9019775390625,355,3.55,0
423,31850,1.165,91068,1165,0,-26,2005,-359,-0.0126953125,0.97900390625,-0.17529296875,5,19,13,0.30517578125,1.15966796875,0.79345703125,-5229,1425,-1953,18074,219,-12712,99.283447265625,1.2030029296875,-69.8291015625,350,3.5,0
424,31851,1.166,91069,1166,1,-29,1993,-448,-0.01416015625,0.97314453125,-0.21875,22,12,0,1.3427734375,0.732421875,0.0,-1217,980,5755,18651,343,-30775,102.4530029296875,1.8841552734375,-169.0521240234375,356,3.56,0
425,31852,1.167,91070,1167,2,-44,1910,735,-0.021484375,0.9326171875,0.35888671875,-20,8,19,-1.220703125,0.48828125,1.15966796875,1465,2210,-3896,12476,187,3441,68.53271484375,1.0272216796875,18.9019775390625,355,3.55,0
426,31853,1.172,91075,1172,0,-30,2009,-361,-0.0146484375,0.98095703125,-0.17626953125,10,22,14,0.6103515625,1.3427734375,0.8544921875,-5242,1414,-1963,18074,218,-12712,99.283447265625,1.197509765625,-69.8291015625,349,3.49,0
427,31854,1.173,91076,1173,1,-35,1995,-441,-0.01708984375,0.97412109375,-0.21533203125,16,29,2,0.9765625,1.77001953125,0.1220703125,-1200,1003,5737,18652,342,-30772,102.45849609375,1.878662109375,-169.03564453125,356,3.56,0
428,31855,1.174,91077,1174,2,-43,1909,734,-0.02099609375,0.93212890625,0.3583984375,-19,7,19,-1.15966796875,0.42724609375,1.15966796875,1457,2213,-3874,12476,187,3441,68.53271484375,1.0272216796875,18.9019775390625,354,3.54,0
429,31856,1.179,91082,1179,0,-37,2013,-359,-0.01806640625,0.98291015625,-0.17529296875,5,19,14,0.30517578125,1.15966796875,0.8544921875,-5255,1416,-1943,18074,219,-12713,99.283447265625,1.2030029296875,-69.8345947265625,349,3.49,0
430,31857,1.18,91083,1180,1,-45,2002,-439,-0.02197265625,0.9775390625,-0.21435546875,7,30,2,0.42724609375,1.8310546875,0.1220703125,-1210,999,5743,18652,342,-30770,102.45849609375,1.878662109375,-169.024658203125,356,3.56,0
431,31858,1.181,91084,1181,2,-38,1908,734,-0.0185546875,0.931640625,0.3583984375,-18,9,20,-1.0986328125,0.54931640625,1.220703125,1428,2195,-3875,12476,187,3441,68.53271484375,1.0272216796875,18.9019775390625,354,3.54,0
432,31859,1.186,91089,1186,0,-43,2013,-355,-0.02099609375,0.98291015625,-0.17333984375,4,19,15,0.244140625,1.15966796875,0.91552734375,-5256,1406,-1954,18074,219,-12713,99.283447265625,1.2030029296875,-69.8345947265625,349,3.49,0
433,31860,1.187,91090,1187,1,-49,1995,-437,-0.02392578125,0.97412109375,-0.21337890625,0,39,3,0.0,2.38037109375,0.18310546875,-1256,976,5754,18652,341,-30765,102.45849609375,1.8731689453125,-168.9971923828125,356,3.56,0
434,31861,1.188,91091,1188,2,-37,1907,733,-0.01806640625,0.93115234375,0.35791015625,-17,8,20,-1.03759765625,0.48828125,1.220703125,1432,2187,-3858,12475,187,3441,68.5272216796875,1.0272216796875,18.9019775390625,354,3.54,0
435,31862,1.196,91099,1196,0,-43,2013,-355,-0.02099609375,0.98291015625,-0.17333984375,4,19,15,0.244140625,1.15966796875,0.91552734375,-5256,1406,-1954,18074,219,-12713,99.283447265625,1.2030029296875,-69.8345947265625,349,3.49,0
436,31863,1.196,91099,1196,1,-48,1987,-436,-0.0234375,0.97021484375,-0.212890625,0,41,4,0.0,2.50244140625,0.244140625,-1231,1000,5763,18652,340,-30762,102.45849609375,1.86767578125,-168.980712890625,356,3.56,0
437,31864,1.196,91099,1196,2,-36,1906,736,-0.017578125,0.9306640625,0.359375,-14,11,21,-0.8544921875,0.67138671875,1.28173828125,1450,2152,-3892,12475,187,3441,68.5272216796875,1.0272216796875,18.9019775390625,355,3.55,0
438,31865,1.2,91103,1200,0,-50,2019,-353,-0.0244140625,0.98583984375,-0.17236328125,4,1,17,0.244140625,0.06103515625,1.03759765625,-5256,1437,-1958,18074,218,-12714,99.283447265625,1.197509765625,-69.840087890625,349,3.49,0
439,31866,1.201,91104,1201,1,-52,1987,-433,-0.025390625,0.97021484375,-0.21142578125,5,45,2,0.30517578125,2.74658203125,0.1220703125,-1208,1021,5771,18652,340,-30760,102.45849609375,1.86767578125,-168.9697265625,356,3.56,0
440,31867,1.202,91105,1202,2,-37,1907,738,-0.01806640625,0.93115234375,0.3603515625,-13,10,22,-0.79345703125,0.6103515625,1.3427734375,1429,2146,-3834,12475,187,3441,68.5272216796875,1.0272216796875,18.9019775390625,355,3.55,0
441,31868,1.207,91110,1207,0,-45,2024,-352,-0.02197265625,0.98828125,-0.171875,4,-3,16,0.244140625,-0.18310546875,0.9765625,-5270,1403,-1960,18074,218,-12714,99.283447265625,1.197509765625,-69.840087890625,349,3.49,0
442,31869,1.208,91111,1208,1,-65,1992,-439,-0.03173828125,0.97265625,-0.21435546875,8,39,-1,0.48828125,2.38037109375,-0.06103515625,-1170,1058,5786,18653,339,-30755,102.4639892578125,1.8621826171875,-168.9422607421875,355,3.55,0
443,31870,1.209,91112,1209,2,-38,1908,739,-0.0185546875,0.931640625,0.36083984375,-15,8,24,-0.91552734375,0.48828125,1.46484375,1450,2165,-3844,12475,187,3441,68.5272216796875,1.0272216796875,18.9019775390625,355,3.55,0
444,31871,1.214,91117,1214,0,-42,2030,-344,-0.0205078125,0.9912109375,-0.16796875,-5,-14,14,-0.30517578125,-0.8544921875,0.8544921875,-5288,1444,-1966,18074,218,-12714,99.283447265625,1.197509765625,-69.840087890625,349,3.49,0
445,31872,1.215,91118,1215,1,-66,1999,-442,-0.0322265625,0.97607421875,-0.2158203125,11,28,-3,0.67138671875,1.708984375,-0.18310546875,-1153,1073,5792,18653,339,-30753,102.4639892578125,1.8621826171875,-168.9312744140625,355,3.55,0
446,31873,1.216,91119,1216,2,-36,1911,741,-0.017578125,0.93310546875,0.36181640625,-21,9,27,-1.28173828125,0.54931640625,1.64794921875,1438,2160,-3855,12475,187,3441,68.5272216796875,1.0272216796875,18.9019775390625,355,3.55,0
447,31874,1.221,91124,1221,0,-42,2029,-344,-0.0205078125,0.99072265625,-0.16796875,-9,-18,14,-0.54931640625,-1.0986328125,0.8544921875,-5268,1442,-1975,18074,218,-12715,99.283447265625,1.197509765625,-69.8455810546875,349,3.49,0
448,31875,1.232,91135,1232,1,-70,1995,-445,-0.0341796875,0.97412109375,-0.21728515625,7,19,-4,0.42724609375,1.15966796875,-0.244140625,-1134,1073,5785,18653,339,-30751,102.4639892578125,1.8621826171875,-168.9202880859375,355,3.55,0
449,31876,1.232,91135,1232,2,-34,1913,747,-0.0166015625,0.93408203125,0.36474609375,-18,11,27,-1.0986328125,0.67138671875,1.64794921875,1416,2185,-3858,12475,187,3441,68.5272216796875,1.0272216796875,18.9019775390625,355,3.55,0
450,31877,1.235,91138,1235,0,-38,2021,-342,-0.0185546875,0.98681640625,-0.1669921875,-14,-22,8,-0.8544921875,-1.3427734375,0.48828125,-5246,1415,-1991,18074,218,-12715,99.283447265625,1.197509765625,-69.8455810546875,349,3.49,0
451,31878,1.236,91139,1236,1,-57,1991,-445,-0.02783203125,0.97216796875,-0.21728515625,10,8,-3,0.6103515625,0.48828125,-0.18310546875,-1161,1053,5758,18654,340,-30749,102.469482421875,1.86767578125,-168.9093017578125,355,3.55,0
452,31879,1.237,91140,1237,2,-34,1913,748,-0.0166015625,0.93408203125,0.365234375,-16,11,26,-0.9765625,0.67138671875,1.5869140625,1429,2190,-3854,12475,187,3440,68.5272216796875,1.0272216796875,18.896484375,355,3.55,0
453,31880,1.242,91145,1242,0,-35,2018,-337,-0.01708984375,0.9853515625,-0.16455078125,-15,-24,5,-0.91552734375,-1.46484375,0.30517578125,-5224,1422,-1992,18074,218,-12715,99.283447265625,1.197509765625,-69.8455810546875,349,3.49,0
454,31881,1.243,91146,1243,1,-54,1991,-448,-0.0263671875,0.97216796875,-0.21875,12,0,0,0.732421875,0.0,0.0,-1148,1036,5729,18654,340,-30748,102.469482421875,1.86767578125,-168.90380859375,355,3.55,0
455,31882,1.244,91147,1244,2,-34,1912,749,-0.0166015625,0.93359375,0.36572265625,-14,13,26,-0.8544921875,0.79345703125,1.5869140625,1450,2194,-3856,12475,187,3440,68.5272216796875,1.0272216796875,18.896484375,355,3.55,0
456,31883,1.249,91152,1249,0,-31,2013,-329,-0.01513671875,0.98291015625,-0.16064453125,-14,-23,3,-0.8544921875,-1.40380859375,0.18310546875,-5244,1455,-2002,18074,218,-12715,99.283447265625,1.197509765625,-69.8455810546875,348,3.48,0
457,31884,1.25,91153,1250,1,-46,1991,-452,-0.0224609375,0.97216796875,-0.220703125,9,-5,0,0.54931640625,-0.30517578125,0.0,-1173,1009,5786,18655,340,-30748,102.4749755859375,1.86767578125,-168.90380859375,355,3.55,0
458,31885,1.251,91154,1251,2,-39,1909,747,-0.01904296875,0.93212890625,0.36474609375,-11,10,27,-0.67138671875,0.6103515625,1.64794921875,1460,2199,-3864,12474,187,3440,68.521728515625,1.0272216796875,18.896484375,355,3.55,0
459,31886,1.256,91159,1256,0,-32,2011,-326,-0.015625,0.98193359375,-0.1591796875,-12,-20,6,-0.732421875,-1.220703125,0.3662109375,-5263,1459,-1985,18074,218,-12715,99.283447265625,1.197509765625,-69.8455810546875,348,3.48,0
460,31887,1.257,91160,1257,1,-44,1996,-457,-0.021484375,0.974609375,-0.22314453125,8,-9,4,0.48828125,-0.54931640625,0.244140625,-1197,1002,5782,18655,340,-30748,102.4749755859375,1.86767578125,-168.90380859375,354,3.54,0
461,31888,1.258,91161,1258,2,-42,1908,745,-0.0205078125,0.931640625,0.36376953125,-13,8,29,-0.79345703125,0.48828125,1.77001953125,1488,2192,-3865,12474,187,3440,68.521728515625,1.0272216796875,18.896484375,355,3.55,0
462,31889,1.263,91166,1263,0,-30,2011,-323,-0.0146484375,0.98193359375,-0.15771484375,-10,-17,4,-0.6103515625,-1.03759765625,0.244140625,-5272,1459,-1927,18074,218,-12716,99.283447265625,1.197509765625,-69.85107421875,348,3.48,0
463,31890,1.264,91167,1264,1,-44,1995,-456,-0.021484375,0.97412109375,-0.22265625,9,-16,5,0.54931640625,-0.9765625,0.30517578125,-1204,998,5733,18655,340,-30750,102.4749755859375,1.86767578125,-168.914794921875,354,3.54,0
464,31891,1.265,91168,1265,2,-46,1905,743,-0.0224609375,0.93017578125,0.36279296875,-16,3,27,-0.9765625,0.18310546875,1.64794921875,1496,2220,-3834,12474,187,3440,68.521728515625,1.0272216796875,18.896484375,355,3.55,0
465,31892,1.27,91173,1270,0,-29,2011,-321,-0.01416015625,0.98193359375,-0.15673828125,-7,-7,7,-0.42724609375,-0.42724609375,0.42724609375,-5300,1442,-1937,18074,218,-12716,99.283447265625,1.197509765625,-69.85107421875,348,3.48,0
466,31893,1.271,91174,1271,1,-44,1996,-459,-0.021484375,0.974609375,-0.22412109375,5,-17,10,0.30517578125,-1.03759765625,0.6103515625,-1217,998,5757,18655,340,-30750,102.4749755859375,1.86767578125,-168.914794921875,354,3.54,0
467,31894,1.272,91175,1272,2,-48,1903,741,-0.0234375,0.92919921875,0.36181640625,-14,-1,26,-0.8544921875,-0.06103515625,1.5869140625,1508,2211,-3860,12474,187,3440,68.521728515625,1.0272216796875,18.896484375,355,3.55,0
468,31895,1.277,91180,1277,0,-30,2016,-321,-0.0146484375,0.984375,-0.15673828125,-9,0,7,-0.54931640625,0.0,0.42724609375,-5306,1433,-1949,18074,218,-12716,99.283447265625,1.197509765625,-69.85107421875,348,3.48,0
469,31896,1.278,91181,1278,1,-46,1989,-457,-0.0224609375,0.97119140625,-0.22314453125,-3,-18,14,-0.18310546875,-1.0986328125,0.8544921875,-1211,974,5742,18654,339,-30752,102.469482421875,1.8621826171875,-168.92578125,354,3.54,0
470,31897,1.279,91182,1279,2,-48,1903,740,-0.0234375,0.92919921875,0.361328125,-12,-5,26,-0.732421875,-0.30517578125,1.5869140625,1494,2223,-3855,12474,187,3440,68.521728515625,1.0272216796875,18.896484375,355,3.55,0
471,31898,1.284,91187,1284,0,-30,2016,-321,-0.0146484375,0.984375,-0.15673828125,-9,0,7,-0.54931640625,0.0,0.42724609375,-5306,1433,-1949,18074,218,-12716,99.283447265625,1.197509765625,-69.85107421875,348,3.48,0
472,31899,1.292,91195,1292,1,-52,1986,-459,-0.025390625,0.9697265625,-0.22412109375,-4,-17,15,-0.244140625,-1.03759765625,0.91552734375,-1221,973,5780,18653,338,-30753,102.4639892578125,1.856689453125,-168.9312744140625,354,3.54,0
473,31900,1.292,91195,1292,2,-47,1904,737,-0.02294921875,0.9296875,0.35986328125,-12,-13,25,-0.732421875,-0.79345703125,1.52587890625,1498,2213,-3868,12473,187,3440,68.5162353515625,1.0272216796875,18.896484375,356,3.56,0
474,31901,1.292,91195,1292,0,-29,2013,-331,-0.01416015625,0.98291015625,-0.16162109375,-7,17,11,-0.42724609375,1.03759765625,0.67138671875,-5256,1439,-1961,18073,217,-12717,99.2779541015625,1.1920166015625,-69.8565673828125,348,3.48,0
475,31902,1.292,91195,1292,1,-56,1983,-459,-0.02734375,0.96826171875,-0.22412109375,-5,-14,16,-0.30517578125,-0.8544921875,0.9765625,-1210,971,5775,18653,337,-30753,102.4639892578125,1.8511962890625,-168.9312744140625,355,3.55,0
476,31903,1.293,91196,1293,2,-45,1904,736,-0.02197265625,0.9296875,0.359375,-12,-15,24,-0.732421875,-0.91552734375,1.46484375,1489,2230,-3889,12473,187,3440,68.5162353515625,1.0272216796875,18.896484375,356,3.56,0
477,31904,1.298,91201,1298,0,-27,2011,-335,-0.01318359375,0.98193359375,-0.16357421875,-7,20,11,-0.42724609375,1.220703125,0.67138671875,-5262,1452,-2008,18073,217,-12717,99.2779541015625,1.1920166015625,-69.8565673828125,348,3.48,0
478,31905,1.299,91202,1299,1,-62,1972,-453,-0.0302734375,0.962890625,-0.22119140625,-3,-8,15,-0.18310546875,-0.48828125,0.91552734375,-1209,967,5822,18652,336,-30754,102.45849609375,1.845703125,-168.936767578125,355,3.55,0
479,31906,1.3,91203,1300,2,-43,1904,734,-0.02099609375,0.9296875,0.3583984375,-11,-13,24,-0.67138671875,-0.79345703125,1.46484375,1496,2217,-3888,12473,187,3440,68.5162353515625,1.0272216796875,18.896484375,357,3.57,0
480,31907,1.305,91208,1305,0,-30,2013,-344,-0.0146484375,0.98291015625,-0.16796875,-4,17,13,-0.244140625,1.03759765625,0.79345703125,-5250,1478,-2051,18073,217,-12718,99.2779541015625,1.1920166015625,-69.862060546875,347,3.47,0
481,31908,1.306,91209,1306,1,-66,1974,-456,-0.0322265625,0.9638671875,-0.22265625,-2,-9,10,-0.1220703125,-0.54931640625,0.6103515625,-1211,945,5831,18652,336,-30754,102.45849609375,1.845703125,-168.936767578125,355,3.55,0
482,31909,1.307,91210,1307,2,-41,1907,732,-0.02001953125,0.93115234375,0.357421875,-16,-15,23,-0.9765625,-0.91552734375,1.40380859375,1496,2229,-3907,12473,187,3440,68.5162353515625,1.0272216796875,18.896484375,357,3.57,0
483,31910,1.312,91215,1312,0,-32,2010,-353,-0.015625,0.9814453125,-0.17236328125,-6,13,15,-0.3662109375,0.79345703125,0.91552734375,-5277,1465,-2061,18073,217,-12718,99.2779541015625,1.1920166015625,-69.862060546875,347,3.47,0
484,31911,1.314,91217,1314,2,-41,1908,732,-0.02001953125,0.931640625,0.357421875,-18,-14,23,-1.0986328125,-0.8544921875,1.40380859375,1486,2245,-3898,12473,187,3440,68.5162353515625,1.0272216796875,18.896484375,357,3.57,0
485,31912,1.319,91222,1319,0,-32,2010,-353,-0.015625,0.9814453125,-0.17236328125,-6,13,15,-0.3662109375,0.79345703125,0.91552734375,-5277,1465,-2061,18073,217,-12718,99.2779541015625,1.1920166015625,-69.862060546875,347,3.47,0
486,31913,1.32,91223,1320,1,-62,1968,-457,-0.0302734375,0.9609375,-0.22314453125,11,-10,6,0.67138671875,-0.6103515625,0.3662109375,-1219,963,5804,18652,335,-30755,102.45849609375,1.8402099609375,-168.9422607421875,356,3.56,0
487,31914,1.321,91224,1321,2,-44,1910,732,-0.021484375,0.9326171875,0.357421875,-15,-17,20,-0.91552734375,-1.03759765625,1.220703125,1504,2259,-3898,12473,187,3440,68.5162353515625,1.0272216796875,18.896484375,358,3.58,0
488,31915,1.326,91229,1326,0,-35,2014,-360,-0.01708984375,0.9833984375,-0.17578125,-3,2,12,-0.18310546875,0.1220703125,0.732421875,-5259,1448,-1995,18073,217,-12719,99.2779541015625,1.1920166015625,-69.8675537109375,347,3.47,0
489,31916,1.327,91230,1327,1,-58,1969,-461,-0.0283203125,0.96142578125,-0.22509765625,11,-12,1,0.67138671875,-0.732421875,0.06103515625,-1203,953,5853,18653,336,-30755,102.4639892578125,1.845703125,-168.9422607421875,356,3.56,0
490,31917,1.328,91231,1328,2,-46,1913,731,-0.0224609375,0.93408203125,0.35693359375,-19,-21,19,-1.15966796875,-1.28173828125,1.15966796875,1517,2282,-3889,12473,188,3440,68.5162353515625,1.03271484375,18.896484375,358,3.58,0
491,31918,1.333,91236,1333,0,-33,2013,-362,-0.01611328125,0.98291015625,-0.1767578125,-1,3,13,-0.06103515625,0.18310546875,0.79345703125,-5246,1456,-1966,18073,217,-12719,99.2779541015625,1.1920166015625,-69.8675537109375,347,3.47,0
492,31919,1.334,91237,1334,1,-58,1977,-466,-0.0283203125,0.96533203125,-0.2275390625,13,-15,-2,0.79345703125,-0.91552734375,-0.1220703125,-1170,979,5851,18653,336,-30756,102.4639892578125,1.845703125,-168.94775390625,356,3.56,0
493,31920,1.335,91238,1335,2,-46,1914,730,-0.0224609375,0.9345703125,0.3564453125,-24,-20,18,-1.46484375,-1.220703125,1.0986328125,1517,2260,-3871,12473,188,3440,68.5162353515625,1.03271484375,18.896484375,358,3.58,0
494,31921,1.34,91243,1340,0,-34,2012,-357,-0.0166015625,0.982421875,-0.17431640625,-3,4,13,-0.18310546875,0.244140625,0.79345703125,-5239,1434,-1971,18073,217,-12719,99.2779541015625,1.1920166015625,-69.8675537109375,347,3.47,0
495,31922,1.341,91244,1341,1,-53,1979,-470,-0.02587890625,0.96630859375,-0.2294921875,13,-18,-4,0.79345703125,-1.0986328125,-0.244140625,-1148,972,5838,18654,337,-30757,102.469482421875,1.8511962890625,-168.9532470703125,356,3.56,0
496,31923,1.342,91245,1342,2,-45,1913,735,-0.02197265625,0.93408203125,0.35888671875,-17,-11,12,-1.03759765625,-0.67138671875,0.732421875,1519,2247,-3845,12473,188,3440,68.5162353515625,1.03271484375,18.896484375,358,3.58,0
497,31924,1.347,91250,1347,0,-38,2016,-358,-0.0185546875,0.984375,-0.1748046875,-1,4,12,-0.06103515625,0.244140625,0.732421875,-5249,1411,-1997,18073,217,-12719,99.2779541015625,1.1920166015625,-69.8675537109375,347,3.47,0
498,31925,1.348,91251,1348,1,-42,1983,-472,-0.0205078125,0.96826171875,-0.23046875,9,-18,-5,0.54931640625,-1.0986328125,-0.30517578125,-1169,984,5825,18657,333,-30757,102.4859619140625,1.8292236328125,-168.9532470703125,356,3.56,0
499,31926,1.356,91259,1356,2,-47,1913,737,-0.02294921875,0.93408203125,0.35986328125,-12,-15,11,-0.732421875,-0.91552734375,0.67138671875,1519,2252,-3861,12473,188,3440,68.5162353515625,1.03271484375,18.896484375,359,3.59,0
500,31927,1.356,91259,1356,0,-38,2016,-358,-0.0185546875,0.984375,-0.1748046875,-1,4,12,-0.06103515625,0.244140625,0.732421875,-5249,1411,-1997,18073,217,-12719,99.2779541015625,1.1920166015625,-69.8675537109375,347,3.47,0
501,31928,1.356,91259,1356,1,-32,1985,-473,-0.015625,0.96923828125,-0.23095703125,12,-16,-4,0.732421875,-0.9765625,-0.244140625,-1195,1001,5814,18657,333,-30757,102.4859619140625,1.8292236328125,-168.9532470703125,356,3.56,0
502,31929,1.356,91259,1356,2,-48,1913,735,-0.0234375,0.93408203125,0.35888671875,-16,-16,9,-0.9765625,-0.9765625,0.54931640625,1545,2257,-3807,12473,188,3440,68.5162353515625,1.03271484375,18.896484375,359,3.59,0
503,31930,1.361,91264,1361,0,-42,2010,-356,-0.0205078125,0.9814453125,-0.173828125,2,-5,8,0.1220703125,-0.30517578125,0.48828125,-5242,1398,-2036,18073,216,-12720,99.2779541015625,1.1865234375,-69.873046875,347,3.47,0
504,31931,1.362,91265,1362,1,-30,1984,-472,-0.0146484375,0.96875,-0.23046875,10,-19,-2,0.6103515625,-1.15966796875,-0.1220703125,-1183,995,5802,18657,333,-30756,102.4859619140625,1.8292236328125,-168.94775390625,356,3.56,0
505,31932,1.363,91266,1363,2,-48,1912,734,-0.0234375,0.93359375,0.3583984375,-18,-14,8,-1.0986328125,-0.8544921875,0.48828125,1543,2228,-3806,12473,188,3440,68.5162353515625,1.03271484375,18.896484375,359,3.59,0
506,31933,1.368,91271,1368,0,-40,2009,-357,-0.01953125,0.98095703125,-0.17431640625,-1,-11,11,-0.06103515625,-0.67138671875,0.67138671875,-5236,1403,-2059,18073,216,-12720,99.2779541015625,1.1865234375,-69.873046875,347,3.47,0
507,31934,1.369,91272,1369,1,-31,1991,-467,-0.01513671875,0.97216796875,-0.22802734375,19,-12,2,1.15966796875,-0.732421875,0.1220703125,-1178,1019,5749,18658,332,-30756,102.491455078125,1.82373046875,-168.94775390625,356,3.56,0
508,31935,1.37,91273,1370,2,-48,1911,734,-0.0234375,0.93310546875,0.3583984375,-18,-16,8,-1.0986328125,-0.9765625,0.48828125,1555,2211,-3798,12472,188,3440,68.5107421875,1.03271484375,18.896484375,359,3.59,0
509,31936,1.375,91278,1375,0,-45,2008,-357,-0.02197265625,0.98046875,-0.17431640625,1,-22,9,0.06103515625,-1.3427734375,0.54931640625,-5251,1414,-1991,18073,216,-12720,99.2779541015625,1.1865234375,-69.873046875,347,3.47,0
510,31937,1.376,91279,1376,1,-29,1994,-460,-0.01416015625,0.9736328125,-0.224609375,16,-16,1,0.9765625,-0.9765625,0.06103515625,-1191,1016,5739,18658,332,-30756,102.491455078125,1.82373046875,-168.94775390625,356,3.56,0
511,31938,1.377,91280,1377,2,-47,1910,738,-0.02294921875,0.9326171875,0.3603515625,-16,-18,9,-0.9765625,-1.0986328125,0.54931640625,1537,2203,-3809,12472,188,3441,68.5107421875,1.03271484375,18.9019775390625,359,3.59,0
512,31939,1.386,91289,1386,0,-36,2011,-358,-0.017578125,0.98193359375,-0.1748046875,1,-30,11,0.06103515625,-1.8310546875,0.67138671875,-5258,1421,-2013,18073,216,-12721,99.2779541015625,1.1865234375,-69.8785400390625,347,3.47,0
513,31940,1.386,91289,1386,1,-32,1995,-459,-0.015625,0.97412109375,-0.22412109375,15,-14,1,0.91552734375,-0.8544921875,0.06103515625,-1203,1009,5684,18658,332,-30756,102.491455078125,1.82373046875,-168.94775390625,356,3.56,0
514,31941,1.386,91289,1386,2,-46,1911,739,-0.0224609375,0.93310546875,0.36083984375,-15,-19,10,-0.91552734375,-1.15966796875,0.6103515625,1533,2188,-3798,12472,188,3441,68.5107421875,1.03271484375,18.9019775390625,359,3.59,0
515,31942,1.389,91292,1389,0,-36,2012,-355,-0.017578125,0.982421875,-0.17333984375,5,-36,12,0.30517578125,-2.197265625,0.732421875,-5256,1415,-1999,18073,216,-12722,99.2779541015625,1.1865234375,-69.884033203125,347,3.47,0
516,31943,1.39,91293,1390,1,-31,1994,-449,-0.01513671875,0.9736328125,-0.21923828125,15,-6,4,0.91552734375,-0.3662109375,0.244140625,-1202,1006,5748,18659,331,-30756,102.4969482421875,1.8182373046875,-168.94775390625,356,3.56,0
517,31944,1.391,91294,1391,2,-45,1912,740,-0.02197265625,0.93359375,0.361328125,-24,-18,10,-1.46484375,-1.0986328125,0.6103515625,1542,2199,-3819,12472,188,3441,68.5107421875,1.03271484375,18.9019775390625,358,3.58,0
518,31945,1.396,91299,1396,0,-35,2016,-352,-0.01708984375,0.984375,-0.171875,1,-49,15,0.06103515625,-2.99072265625,0.91552734375,-5228,1417,-2033,18074,216,-12725,99.283447265625,1.1865234375,-69.9005126953125,347,3.47,0
519,31946,1.397,91300,1397,1,-27,1992,-445,-0.01318359375,0.97265625,-0.21728515625,13,-1,4,0.79345703125,-0.06103515625,0.244140625,-1209,1006,5740,18659,331,-30756,102.4969482421875,1.8182373046875,-168.94775390625,356,3.56,0
520,31947,1.398,91301,1398,2,-44,1912,741,-0.021484375,0.93359375,0.36181640625,-25,-20,11,-1.52587890625,-1.220703125,0.67138671875,1554,2192,-3840,12472,188,3441,68.5107421875,1.03271484375,18.9019775390625,358,3.58,0
521,31948,1.403,91306,1403,0,-33,2012,-348,-0.01611328125,0.982421875,-0.169921875,-1,-48,18,-0.06103515625,-2.9296875,1.0986328125,-5215,1400,-2058,18074,216,-12727,99.283447265625,1.1865234375,-69.9114990234375,347,3.47,0
522,31949,1.404,91307,1404,1,-34,1992,-445,-0.0166015625,0.97265625,-0.21728515625,6,4,4,0.3662109375,0.244140625,0.244140625,-1204,991,5745,18659,331,-30756,102.4969482421875,1.8182373046875,-168.94775390625,357,3.57,0
523,31950,1.405,91308,1405,2,-42,1912,743,-0.0205078125,0.93359375,0.36279296875,-23,-21,11,-1.40380859375,-1.28173828125,0.67138671875,1574,2181,-3856,12472,188,3441,68.5107421875,1.03271484375,18.9019775390625,357,3.57,0
524,31951,1.41,91313,1410,0,-33,2012,-348,-0.01611328125,0.982421875,-0.169921875,-1,-48,18,-0.06103515625,-2.9296875,1.0986328125,-5215,1400,-2058,18074,216,-12727,99.283447265625,1.1865234375,-69.9114990234375,347,3.47,0
525,31952,1.411,91314,1411,1,-41,1998,-447,-0.02001953125,0.9755859375,-0.21826171875,4,4,2,0.244140625,0.244140625,0.1220703125,-1183,1003,5749,18659,330,-30756,102.4969482421875,1.812744140625,-168.94775390625,357,3.57,0
526,31953,1.412,91315,1412,2,-40,1913,746,-0.01953125,0.93408203125,0.3642578125,-14,-21,13,-0.8544921875,-1.28173828125,0.79345703125,1527,2142,-3852,12472,189,3441,68.5107421875,1.0382080078125,18.9019775390625,357,3.57,0
527,31954,1.417,91320,1417,0,-27,2013,-355,-0.01318359375,0.98291015625,-0.17333984375,-3,-43,16,-0.18310546875,-2.62451171875,0.9765625,-5256,1420,-2039,18075,215,-12733,99.2889404296875,1.1810302734375,-69.9444580078125,347,3.47,0
528,31955,1.418,91321,1418,1,-39,1993,-447,-0.01904296875,0.97314453125,-0.21826171875,3,3,2,0.18310546875,0.18310546875,0.1220703125,-1160,1002,5767,18659,330,-30756,102.4969482421875,1.812744140625,-168.94775390625,357,3.57,0
529,31956,1.419,91322,1419,2,-40,1913,746,-0.01953125,0.93408203125,0.3642578125,-14,-23,13,-0.8544921875,-1.40380859375,0.79345703125,1530,2142,-3843,12472,189,3441,68.5107421875,1.0382080078125,18.9019775390625,357,3.57,0
530,31957,1.424,91327,1424,0,-27,2017,-363,-0.01318359375,0.98486328125,-0.17724609375,-2,-48,13,-0.1220703125,-2.9296875,0.79345703125,-5252,1429,-2032,18075,215,-12735,99.2889404296875,1.1810302734375,-69.9554443359375,347,3.47,0
531,31958,1.425,91328,1425,1,-41,1989,-447,-0.02001953125,0.97119140625,-0.21826171875,7,3,-1,0.42724609375,0.18310546875,-0.06103515625,-1138,968,5754,18659,330,-30756,102.4969482421875,1.812744140625,-168.94775390625,357,3.57,0
532,31959,1.426,91329,1426,2,-39,1913,746,-0.01904296875,0.93408203125,0.3642578125,-16,-24,12,-0.9765625,-1.46484375,0.732421875,1521,2148,-3850,12472,189,3441,68.5107421875,1.0382080078125,18.9019775390625,357,3.57,0
533,31960,1.431,91334,1431,0,-20,2012,-357,-0.009765625,0.982421875,-0.17431640625,2,-55,12,0.1220703125,-3.35693359375,0.732421875,-5266,1444,-2070,18076,215,-12739,99.29443359375,1.1810302734375,-69.9774169921875,347,3.47,0
534,31961,1.432,91335,1432,1,-43,1989,-449,-0.02099609375,0.97119140625,-0.21923828125,5,3,0,0.30517578125,0.18310546875,0.0,-1143,982,5734,18659,329,-30756,102.4969482421875,1.8072509765625,-168.94775390625,357,3.57,0
