record_index,sequence,time_s,tick_ms,tick_elapsed_ms,device_id,accel_x_raw,accel_y_raw,accel_z_raw,accel_x_g,accel_y_g,accel_z_g,gyro_x_raw,gyro_y_raw,gyro_z_raw,gyro_x_dps,gyro_y_dps,gyro_z_dps,mag_x_raw,mag_y_raw,mag_z_raw,angle_x_raw,angle_y_raw,angle_z_raw,angle_x_deg,angle_y_deg,angle_z_deg,battery_raw,battery_voltage,sequence_gap_before
0,17162,0.0,46173,0,1,127,1956,-534,0.06201171875,0.955078125,-0.2607421875,52,320,-56,3.173828125,19.53125,-3.41796875,-1501,-1241,6967,18992,-900,-29429,104.326171875,-4.94384765625,-161.6583251953125,356,3.56,0
1,17163,0.0,46173,0,2,-37,1951,654,-0.01806640625,0.95263671875,0.3193359375,-52,-9,-4,-3.173828125,-0.54931640625,-0.244140625,2370,-278,-4700,13043,-6,5542,71.6473388671875,-0.032958984375,30.443115234375,357,3.57,0
2,17164,0.002,46175,2,2,-27,1933,678,-0.01318359375,0.94384765625,0.3310546875,-49,-39,-20,-2.99072265625,-2.38037109375,-1.220703125,2390,-317,-4690,13022,1,5535,71.531982421875,0.0054931640625,30.4046630859375,358,3.58,0
3,17165,0.004,46177,4,0,-9,1999,-258,-0.00439453125,0.97607421875,-0.1259765625,46,-55,23,2.8076171875,-3.35693359375,1.40380859375,-4572,-2156,42,14348,826,-19682,78.81591796875,4.537353515625,-108.116455078125,351,3.51,0
4,17166,0.005,46178,5,1,191,2045,-415,0.09326171875,0.99853515625,-0.20263671875,8,262,-22,0.48828125,15.9912109375,-1.3427734375,-1591,-1205,6907,19002,-918,-29307,104.381103515625,-5.042724609375,-160.9881591796875,356,3.56,0
5,17167,0.006,46179,6,2,-30,1943,673,-0.0146484375,0.94873046875,0.32861328125,-57,-63,-24,-3.47900390625,-3.84521484375,-1.46484375,2382,-300,-4662,13016,3,5528,71.4990234375,0.0164794921875,30.3662109375,358,3.58,0
6,17168,0.011,46184,11,0,-16,2013,-256,-0.0078125,0.98291015625,-0.125,45,-57,32,2.74658203125,-3.47900390625,1.953125,-4553,-2138,26,14349,825,-19690,78.8214111328125,4.5318603515625,-108.160400390625,351,3.51,0
7,17169,0.012,46185,12,1,159,2045,-407,0.07763671875,0.99853515625,-0.19873046875,-5,282,-16,-0.30517578125,17.2119140625,-0.9765625,-1591,-1237,6895,18998,-925,-29276,104.359130859375,-5.0811767578125,-160.81787109375,356,3.56,0
8,17170,0.013,46186,13,2,-30,1949,672,-0.0146484375,0.95166015625,0.328125,-65,-56,-22,-3.96728515625,-3.41796875,-1.3427734375,2351,-316,-4689,13013,4,5525,71.4825439453125,0.02197265625,30.3497314453125,358,3.58,0
9,17171,0.018,46191,18,0,-26,2021,-261,-0.0126953125,0.98681640625,-0.12744140625,47,-53,38,2.86865234375,-3.23486328125,2.3193359375,-4544,-2139,10,14350,825,-19694,78.826904296875,4.5318603515625,-108.182373046875,351,3.51,0
10,17172,0.019,46192,19,1,133,2046,-433,0.06494140625,0.9990234375,-0.21142578125,-20,267,-7,-1.220703125,16.29638671875,-0.42724609375,-1594,-1242,6848,18995,-928,-29262,104.3426513671875,-5.09765625,-160.740966796875,356,3.56,0
11,17173,0.02,46193,20,2,-27,1954,667,-0.01318359375,0.9541015625,0.32568359375,-79,-47,-27,-4.82177734375,-2.86865234375,-1.64794921875,2355,-325,-4636,13005,5,5520,71.4385986328125,0.0274658203125,30.322265625,358,3.58,0
12,17174,0.025,46198,25,0,-26,2021,-261,-0.0126953125,0.98681640625,-0.12744140625,47,-53,38,2.86865234375,-3.23486328125,2.3193359375,-4544,-2139,10,14350,825,-19694,78.826904296875,4.5318603515625,-108.182373046875,351,3.51,0
13,17175,0.026,46199,26,1,103,2033,-458,0.05029296875,0.99267578125,-0.2236328125,-23,233,8,-1.40380859375,14.22119140625,0.48828125,-1606,-1236,6855,18993,-932,-29250,104.3316650390625,-5.11962890625,-160.675048828125,356,3.56,0
14,17176,0.027,46200,27,2,-26,1952,668,-0.0126953125,0.953125,0.326171875,-78,-40,-29,-4.7607421875,-2.44140625,-1.77001953125,2342,-313,-4667,13001,7,5517,71.4166259765625,0.0384521484375,30.3057861328125,358,3.58,0
15,17177,0.032,46205,32,0,-42,2037,-280,-0.0205078125,0.99462890625,-0.13671875,38,-28,40,2.3193359375,-1.708984375,2.44140625,-4526,-2150,39,14362,822,-19708,78.892822265625,4.515380859375,-108.25927734375,351,3.51,0
16,17178,0.033,46206,33,1,66,2013,-431,0.0322265625,0.98291015625,-0.21044921875,9,146,27,0.54931640625,8.9111328125,1.64794921875,-1609,-1207,6831,18992,-939,-29233,104.326171875,-5.1580810546875,-160.5816650390625,355,3.55,0
17,17179,0.034,46207,34,2,-27,1950,669,-0.01318359375,0.9521484375,0.32666015625,-73,-41,-30,-4.45556640625,-2.50244140625,-1.8310546875,2355,-304,-4645,12997,8,5515,71.3946533203125,0.0439453125,30.2947998046875,358,3.58,0
18,17180,0.039,46212,39,0,-48,2041,-290,-0.0234375,0.99658203125,-0.1416015625,28,-26,40,1.708984375,-1.5869140625,2.44140625,-4536,-2163,37,14361,822,-19710,78.8873291015625,4.515380859375,-108.270263671875,351,3.51,0
19,17181,0.04,46213,40,1,67,2010,-404,0.03271484375,0.9814453125,-0.197265625,20,113,27,1.220703125,6.89697265625,1.64794921875,-1613,-1205,6830,18992,-943,-29227,104.326171875,-5.1800537109375,-160.5487060546875,355,3.55,0
20,17182,0.041,46214,41,2,-26,1944,675,-0.0126953125,0.94921875,0.32958984375,-62,-50,-27,-3.7841796875,-3.0517578125,-1.64794921875,2342,-325,-4622,12991,10,5509,71.3616943359375,0.054931640625,30.2618408203125,358,3.58,0
21,17183,0.046,46219,46,0,-51,2035,-298,-0.02490234375,0.99365234375,-0.1455078125,14,-32,35,0.8544921875,-1.953125,2.13623046875,-4526,-2158,34,14371,821,-19721,78.9422607421875,4.5098876953125,-108.3306884765625,351,3.51,0
22,17184,0.047,46220,47,1,75,1998,-395,0.03662109375,0.9755859375,-0.19287109375,-36,68,22,-2.197265625,4.150390625,1.3427734375,-1620,-1201,6829,18988,-947,-29220,104.30419921875,-5.2020263671875,-160.51025390625,355,3.55,0
23,17185,0.048,46221,48,2,-23,1941,677,-0.01123046875,0.94775390625,0.33056640625,-55,-52,-25,-3.35693359375,-3.173828125,-1.52587890625,2328,-310,-4610,12989,11,5506,71.3507080078125,0.0604248046875,30.245361328125,357,3.57,0
24,17186,0.053,46226,53,0,-47,2034,-303,-0.02294921875,0.9931640625,-0.14794921875,12,-38,34,0.732421875,-2.3193359375,2.0751953125,-4518,-2165,23,14369,821,-19724,78.9312744140625,4.5098876953125,-108.34716796875,350,3.5,0
25,17187,0.054,46227,54,1,83,1984,-386,0.04052734375,0.96875,-0.1884765625,-48,32,20,-2.9296875,1.953125,1.220703125,-1653,-1216,6851,18985,-949,-29218,104.2877197265625,-5.2130126953125,-160.499267578125,355,3.55,0
26,17188,0.055,46228,55,2,-18,1938,677,-0.0087890625,0.9462890625,0.33056640625,-45,-56,-23,-2.74658203125,-3.41796875,-1.40380859375,2332,-338,-4628,12987,12,5503,71.3397216796875,0.06591796875,30.2288818359375,357,3.57,0
27,17189,0.06,46233,60,0,-47,2032,-301,-0.02294921875,0.9921875,-0.14697265625,9,-44,30,0.54931640625,-2.685546875,1.8310546875,-4521,-2166,13,14368,821,-19728,78.92578125,4.5098876953125,-108.369140625,350,3.5,0
28,17190,0.061,46234,61,1,104,1971,-355,0.05078125,0.96240234375,-0.17333984375,-36,19,16,-2.197265625,1.15966796875,0.9765625,-1694,-1223,6847,18983,-950,-29217,104.2767333984375,-5.218505859375,-160.4937744140625,355,3.55,0
29,17191,0.062,46235,62,2,-4,1936,674,-0.001953125,0.9453125,0.3291015625,-35,-55,-19,-2.13623046875,-3.35693359375,-1.15966796875,2309,-352,-4631,12983,13,5497,71.3177490234375,0.0714111328125,30.1959228515625,357,3.57,0
30,17192,0.073,46246,73,0,-42,2030,-284,-0.0205078125,0.9912109375,-0.138671875,11,-62,25,0.67138671875,-3.7841796875,1.52587890625,-4525,-2168,-3,14376,820,-19742,78.9697265625,4.50439453125,-108.446044921875,350,3.5,0
31,17193,0.073,46246,73,1,163,1985,-394,0.07958984375,0.96923828125,-0.1923828125,-18,23,-3,-1.0986328125,1.40380859375,-0.18310546875,-1661,-1210,6874,18977,-948,-29214,104.2437744140625,-5.20751953125,-160.477294921875,355,3.55,0
32,17194,0.073,46246,73,2,2,1938,670,0.0009765625,0.9462890625,0.3271484375,-36,-49,-18,-2.197265625,-2.99072265625,-1.0986328125,2308,-370,-4631,12982,14,5495,71.312255859375,0.076904296875,30.1849365234375,357,3.57,0
33,17195,0.074,46247,74,0,-36,2033,-275,-0.017578125,0.99267578125,-0.13427734375,13,-70,24,0.79345703125,-4.2724609375,1.46484375,-4530,-2173,9,14375,820,-19747,78.9642333984375,4.50439453125,-108.4735107421875,350,3.5,0
34,17196,0.075,46248,75,1,175,1993,-440,0.08544921875,0.97314453125,-0.21484375,-21,-4,4,-1.28173828125,-0.244140625,0.244140625,-1685,-1215,6861,18976,-948,-29215,104.23828125,-5.20751953125,-160.4827880859375,355,3.55,0
35,17197,0.076,46249,76,2,10,1938,663,0.0048828125,0.9462890625,0.32373046875,-40,-34,-11,-2.44140625,-2.0751953125,-0.67138671875,2324,-356,-4632,12978,15,5491,71.290283203125,0.0823974609375,30.1629638671875,357,3.57,0
36,17198,0.081,46254,81,0,-31,2037,-257,-0.01513671875,0.99462890625,-0.12548828125,17,-80,20,1.03759765625,-4.8828125,1.220703125,-4545,-2163,-2,14372,820,-19759,78.94775390625,4.50439453125,-108.5394287109375,350,3.5,0
37,17199,0.082,46255,82,1,181,2005,-464,0.08837890625,0.97900390625,-0.2265625,-15,-45,9,-0.91552734375,-2.74658203125,0.54931640625,-1700,-1215,6843,18975,-948,-29218,104.2327880859375,-5.20751953125,-160.499267578125,355,3.55,0
38,17200,0.083,46256,83,2,12,1935,661,0.005859375,0.94482421875,0.32275390625,-38,-28,-9,-2.3193359375,-1.708984375,-0.54931640625,2336,-351,-4634,12976,16,5490,71.279296875,0.087890625,30.157470703125,357,3.57,0
39,17201,0.088,46261,88,0,-29,2039,-246,-0.01416015625,0.99560546875,-0.1201171875,14,-81,20,0.8544921875,-4.94384765625,1.220703125,-4553,-2154,-4,14371,821,-19765,78.9422607421875,4.5098876953125,-108.5723876953125,350,3.5,0
40,17202,0.089,46262,89,1,210,2007,-444,0.1025390625,0.97998046875,-0.216796875,-17,-58,27,-1.03759765625,-3.5400390625,1.64794921875,-1704,-1192,6854,18971,-947,-29224,104.2108154296875,-5.2020263671875,-160.5322265625,355,3.55,0
41,17203,0.09,46263,90,2,13,1932,660,0.00634765625,0.943359375,0.322265625,-35,-22,-6,-2.13623046875,-1.3427734375,-0.3662109375,2338,-366,-4643,12975,16,5489,71.2738037109375,0.087890625,30.1519775390625,357,3.57,0
42,17204,0.095,46268,95,0,-31,2041,-237,-0.01513671875,0.99658203125,-0.11572265625,12,-79,16,0.732421875,-4.82177734375,0.9765625,-4558,-2153,38,14369,821,-19770,78.9312744140625,4.5098876953125,-108.599853515625,350,3.5,0
43,17205,0.096,46269,96,1,207,2019,-449,0.10107421875,0.98583984375,-0.21923828125,-18,-43,15,-1.0986328125,-2.62451171875,0.91552734375,-1703,-1214,6872,18969,-947,-29227,104.1998291015625,-5.2020263671875,-160.5487060546875,355,3.55,0
44,17206,0.097,46270,97,2,13,1925,658,0.00634765625,0.93994140625,0.3212890625,-23,-17,3,-1.40380859375,-1.03759765625,0.18310546875,2330,-369,-4618,12973,16,5488,71.2628173828125,0.087890625,30.146484375,357,3.57,0
45,17207,0.102,46275,102,0,-37,2042,-228,-0.01806640625,0.9970703125,-0.111328125,7,-66,12,0.42724609375,-4.0283203125,0.732421875,-4567,-2167,50,14378,822,-19785,78.980712890625,4.515380859375,-108.6822509765625,350,3.5,0
46,17208,0.103,46276,103,1,153,1989,-483,0.07470703125,0.97119140625,-0.23583984375,-40,-91,17,-2.44140625,-5.55419921875,1.03759765625,-1706,-1234,6865,18966,-947,-29235,104.183349609375,-5.2020263671875,-160.5926513671875,355,3.55,0
47,17209,0.104,46277,104,2,15,1923,656,0.00732421875,0.93896484375,0.3203125,-16,-15,7,-0.9765625,-0.91552734375,0.42724609375,2309,-341,-4606,12972,16,5487,71.25732421875,0.087890625,30.1409912109375,357,3.57,0
48,17210,0.109,46282,109,0,-40,2038,-229,-0.01953125,0.9951171875,-0.11181640625,5,-58,9,0.30517578125,-3.5400390625,0.54931640625,-4580,-2166,64,14376,823,-19789,78.9697265625,4.5208740234375,-108.7042236328125,350,3.5,0
49,17211,0.11,46283,110,1,145,1964,-457,0.07080078125,0.958984375,-0.22314453125,-36,-112,17,-2.197265625,-6.8359375,1.03759765625,-1697,-1238,6813,18965,-946,-29241,104.1778564453125,-5.196533203125,-160.6256103515625,355,3.55,0
50,17212,0.111,46284,111,2,21,1927,652,0.01025390625,0.94091796875,0.318359375,-22,0,11,-1.3427734375,0.0,0.67138671875,2314,-303,-4664,12970,16,5488,71.246337890625,0.087890625,30.146484375,357,3.57,0
51,17213,0.116,46289,116,0,-40,2038,-229,-0.01953125,0.9951171875,-0.11181640625,5,-58,9,0.30517578125,-3.5400390625,0.54931640625,-4580,-2166,64,14376,823,-19789,78.9697265625,4.5208740234375,-108.7042236328125,350,3.5,0
52,17214,0.117,46290,117,1,149,1941,-418,0.07275390625,0.94775390625,-0.2041015625,-12,-106,7,-0.732421875,-6.4697265625,0.42724609375,-1712,-1234,6854,18965,-946,-29246,104.1778564453125,-5.196533203125,-160.653076171875,355,3.55,0
53,17215,0.118,46291,118,2,23,1930,650,0.01123046875,0.9423828125,0.3173828125,-33,14,11,-2.01416015625,0.8544921875,0.67138671875,2306,-312,-4652,12969,16,5490,71.2408447265625,0.087890625,30.157470703125,357,3.57,0
54,17216,0.123,46296,123,0,-33,2038,-225,-0.01611328125,0.9951171875,-0.10986328125,6,-31,3,0.3662109375,-1.89208984375,0.18310546875,-4604,-2141,115,14383,826,-19804,79.0081787109375,4.537353515625,-108.78662109375,350,3.5,0
55,17217,0.124,46297,124,1,159,1931,-403,0.07763671875,0.94287109375,-0.19677734375,0,-41,-4,0.0,-2.50244140625,-0.244140625,-1709,-1214,6887,18962,-942,-29251,104.161376953125,-5.174560546875,-160.6805419921875,355,3.55,0
56,17218,0.125,46298,125,2,24,1934,650,0.01171875,0.9443359375,0.3173828125,-42,27,11,-2.5634765625,1.64794921875,0.67138671875,2311,-326,-4635,12967,17,5492,71.2298583984375,0.0933837890625,30.16845703125,357,3.57,0
57,17219,0.136,46309,136,0,-29,2040,-223,-0.01416015625,0.99609375,-0.10888671875,1,-16,4,0.06103515625,-0.9765625,0.244140625,-4604,-2143,132,14381,828,-19807,78.9971923828125,4.54833984375,-108.8031005859375,350,3.5,0
58,17220,0.136,46309,136,1,177,1944,-431,0.08642578125,0.94921875,-0.21044921875,-11,-48,-11,-0.67138671875,-2.9296875,-0.67138671875,-1721,-1205,6857,18961,-941,-29253,104.1558837890625,-5.1690673828125,-160.6915283203125,355,3.55,0
59,17221,0.136,46309,136,2,17,1941,650,0.00830078125,0.94775390625,0.3173828125,-47,28,11,-2.86865234375,1.708984375,0.67138671875,2319,-349,-4605,12962,18,5496,71.202392578125,0.098876953125,30.1904296875,357,3.57,0
60,17222,0.137,46310,137,0,-19,2034,-216,-0.00927734375,0.9931640625,-0.10546875,1,5,-3,0.06103515625,0.30517578125,-0.18310546875,-4589,-2139,102,14377,833,-19809,78.9752197265625,4.5758056640625,-108.8140869140625,350,3.5,0
61,17223,0.138,46311,138,1,227,1967,-482,0.11083984375,0.96044921875,-0.2353515625,-5,-45,-24,-0.30517578125,-2.74658203125,-1.46484375,-1674,-1213,6861,18961,-937,-29256,104.1558837890625,-5.1470947265625,-160.7080078125,356,3.56,0
62,17224,0.139,46312,139,2,12,1942,650,0.005859375,0.9482421875,0.3173828125,-44,26,15,-2.685546875,1.5869140625,0.91552734375,2329,-359,-4629,12960,18,5498,71.19140625,0.098876953125,30.201416015625,357,3.57,0
63,17225,0.144,46317,144,0,-11,2028,-212,-0.00537109375,0.990234375,-0.103515625,4,16,-7,0.244140625,0.9765625,-0.42724609375,-4580,-2140,126,14388,835,-19815,79.03564453125,4.5867919921875,-108.8470458984375,350,3.5,0
64,17226,0.153,46326,153,1,247,1971,-492,0.12060546875,0.96240234375,-0.240234375,42,-26,-17,2.5634765625,-1.5869140625,-1.03759765625,-1673,-1232,6837,18962,-935,-29257,104.161376953125,-5.1361083984375,-160.7135009765625,356,3.56,0
65,17227,0.153,46326,153,2,-2,1939,644,-0.0009765625,0.94677734375,0.314453125,-32,43,12,-1.953125,2.62451171875,0.732421875,2301,-357,-4681,12955,19,5505,71.1639404296875,0.1043701171875,30.2398681640625,356,3.56,0
66,17228,0.158,46331,158,0,4,2029,-208,0.001953125,0.99072265625,-0.1015625,13,36,-5,0.79345703125,2.197265625,-0.30517578125,-4576,-2158,126,14384,843,-19814,79.013671875,4.6307373046875,-108.841552734375,350,3.5,0
67,17229,0.159,46332,159,1,236,2028,-473,0.115234375,0.990234375,-0.23095703125,43,-35,4,2.62451171875,-2.13623046875,0.244140625,-1677,-1234,6812,18971,-934,-29261,104.2108154296875,-5.130615234375,-160.7354736328125,356,3.56,0
68,17230,0.16,46333,160,2,-8,1939,642,-0.00390625,0.94677734375,0.3134765625,-36,47,14,-2.197265625,2.86865234375,0.8544921875,2284,-334,-4684,12954,20,5509,71.158447265625,0.10986328125,30.2618408203125,356,3.56,0
69,17231,0.165,46338,165,0,8,2025,-200,0.00390625,0.98876953125,-0.09765625,17,46,-5,1.03759765625,2.8076171875,-0.30517578125,-4582,-2175,151,14395,845,-19817,79.0740966796875,4.6417236328125,-108.8580322265625,350,3.5,0
70,17232,0.166,46339,166,1,225,2026,-484,0.10986328125,0.9892578125,-0.236328125,-28,-22,-10,-1.708984375,-1.3427734375,-0.6103515625,-1655,-1243,6791,18966,-932,-29261,104.183349609375,-5.11962890625,-160.7354736328125,356,3.56,0
71,17233,0.167,46340,167,2,-18,1940,640,-0.0087890625,0.947265625,0.3125,-45,53,20,-2.74658203125,3.23486328125,1.220703125,2281,-284,-4654,12950,21,5515,71.136474609375,0.1153564453125,30.2947998046875,356,3.56,0
72,17234,0.172,46345,172,0,11,2026,-192,0.00537109375,0.9892578125,-0.09375,16,69,-2,0.9765625,4.21142578125,-0.1220703125,-4590,-2156,147,14394,851,-19813,79.068603515625,4.6746826171875,-108.8360595703125,350,3.5,0
73,17235,0.173,46346,173,1,200,1959,-466,0.09765625,0.95654296875,-0.2275390625,-70,6,-10,-4.2724609375,0.3662109375,-0.6103515625,-1682,-1219,6806,18958,-931,-29260,104.139404296875,-5.1141357421875,-160.72998046875,356,3.56,0
74,17236,0.174,46347,174,2,-21,1941,642,-0.01025390625,0.94775390625,0.3134765625,-42,53,24,-2.5634765625,3.23486328125,1.46484375,2295,-259,-4666,12948,21,5519,71.12548828125,0.1153564453125,30.3167724609375,356,3.56,0
75,17237,0.179,46352,179,0,6,2031,-190,0.0029296875,0.99169921875,-0.0927734375,20,80,0,1.220703125,4.8828125,0.0,-4572,-2155,139,14394,853,-19810,79.068603515625,4.6856689453125,-108.819580078125,350,3.5,0
76,17238,0.18,46353,180,1,192,1938,-438,0.09375,0.9462890625,-0.2138671875,-18,4,-4,-1.0986328125,0.244140625,-0.244140625,-1673,-1207,6811,18958,-931,-29259,104.139404296875,-5.1141357421875,-160.7244873046875,356,3.56,0
77,17239,0.181,46354,181,2,-28,1943,644,-0.013671875,0.94873046875,0.314453125,-30,49,31,-1.8310546875,2.99072265625,1.89208984375,2292,-284,-4693,12945,21,5526,71.1090087890625,0.1153564453125,30.355224609375,356,3.56,0
78,17240,0.186,46359,186,0,6,2031,-190,0.0029296875,0.99169921875,-0.0927734375,20,80,0,1.220703125,4.8828125,0.0,-4572,-2155,139,14394,853,-19810,79.068603515625,4.6856689453125,-108.819580078125,350,3.5,0
79,17241,0.187,46360,187,1,184,1942,-419,0.08984375,0.9482421875,-0.20458984375,33,-4,6,2.01416015625,-0.244140625,0.3662109375,-1682,-1187,6804,18958,-930,-29259,104.139404296875,-5.108642578125,-160.7244873046875,356,3.56,0
80,17242,0.188,46361,188,2,-31,1944,644,-0.01513671875,0.94921875,0.314453125,-27,44,34,-1.64794921875,2.685546875,2.0751953125,2283,-299,-4699,12944,20,5529,71.103515625,0.10986328125,30.3717041015625,356,3.56,0
81,17243,0.193,46366,193,0,-4,2034,-201,-0.001953125,0.9931640625,-0.09814453125,22,102,9,1.3427734375,6.2255859375,0.54931640625,-4584,-2163,142,14393,862,-19798,79.0631103515625,4.735107421875,-108.753662109375,350,3.5,0
82,17244,0.194,46367,194,1,170,2011,-432,0.0830078125,0.98193359375,-0.2109375,9,-5,-10,0.54931640625,-0.30517578125,-0.6103515625,-1667,-1187,6821,18959,-929,-29259,104.1448974609375,-5.1031494140625,-160.7244873046875,356,3.56,0
83,17245,0.195,46368,195,2,-33,1946,644,-0.01611328125,0.9501953125,0.314453125,-25,43,36,-1.52587890625,2.62451171875,2.197265625,2284,-306,-4694,12943,19,5532,71.0980224609375,0.1043701171875,30.38818359375,356,3.56,0
84,17246,0.2,46373,200,0,-13,2035,-209,-0.00634765625,0.99365234375,-0.10205078125,23,104,14,1.40380859375,6.34765625,0.8544921875,-4558,-2181,136,14393,864,-19793,79.0631103515625,4.74609375,-108.7261962890625,350,3.5,0
85,17247,0.201,46374,201,1,160,2015,-448,0.078125,0.98388671875,-0.21875,-42,11,-15,-2.5634765625,0.67138671875,-0.91552734375,-1675,-1204,6795,18955,-929,-29257,104.1229248046875,-5.1031494140625,-160.7135009765625,356,3.56,0
86,17248,0.202,46375,202,2,-32,1947,644,-0.015625,0.95068359375,0.314453125,-25,51,37,-1.52587890625,3.11279296875,2.25830078125,2280,-320,-4664,12941,18,5539,71.0870361328125,0.098876953125,30.4266357421875,356,3.56,0
87,17249,0.207,46380,207,0,-34,2044,-224,-0.0166015625,0.998046875,-0.109375,16,102,12,0.9765625,6.2255859375,0.732421875,-4569,-2172,145,14392,869,-19785,79.0576171875,4.7735595703125,-108.6822509765625,350,3.5,0
88,17250,0.216,46389,216,1,145,1998,-464,0.07080078125,0.9755859375,-0.2265625,-71,22,-18,-4.33349609375,1.3427734375,-1.0986328125,-1629,-1211,6814,18949,-927,-29256,104.0899658203125,-5.0921630859375,-160.7080078125,356,3.56,0
89,17251,0.216,46389,216,2,-32,1945,645,-0.015625,0.94970703125,0.31494140625,-22,52,36,-1.3427734375,3.173828125,2.197265625,2281,-315,-4669,12940,18,5543,71.08154296875,0.098876953125,30.4486083984375,356,3.56,0
90,17252,0.216,46389,216,0,-41,2040,-232,-0.02001953125,0.99609375,-0.11328125,13,99,13,0.79345703125,6.04248046875,0.79345703125,-4587,-2195,136,14391,871,-19781,79.0521240234375,4.7845458984375,-108.6602783203125,350,3.5,0
91,17253,0.216,46389,216,1,100,1944,-477,0.048828125,0.94921875,-0.23291015625,7,-4,-15,0.42724609375,-0.244140625,-0.91552734375,-1624,-1212,6774,18949,-926,-29255,104.0899658203125,-5.086669921875,-160.7025146484375,356,3.56,0
92,17254,0.216,46389,216,2,-33,1943,645,-0.01611328125,0.94873046875,0.31494140625,-19,50,36,-1.15966796875,3.0517578125,2.197265625,2286,-333,-4707,12939,17,5546,71.0760498046875,0.0933837890625,30.465087890625,356,3.56,0
93,17255,0.221,46394,221,0,-49,2042,-237,-0.02392578125,0.9970703125,-0.11572265625,8,90,13,0.48828125,5.4931640625,0.79345703125,-4576,-2182,111,14390,873,-19778,79.046630859375,4.7955322265625,-108.643798828125,350,3.5,0
94,17256,0.222,46395,222,1,97,1947,-463,0.04736328125,0.95068359375,-0.22607421875,56,-17,-11,3.41796875,-1.03759765625,-0.67138671875,-1621,-1230,6793,18953,-925,-29256,104.1119384765625,-5.0811767578125,-160.7080078125,356,3.56,0
95,17257,0.223,46396,223,2,-32,1934,647,-0.015625,0.9443359375,0.31591796875,-12,47,33,-0.732421875,2.86865234375,2.01416015625,2288,-297,-4736,12939,17,5553,71.0760498046875,0.0933837890625,30.5035400390625,355,3.55,0
96,17258,0.228,46401,228,0,-62,2038,-247,-0.0302734375,0.9951171875,-0.12060546875,4,73,11,0.244140625,4.45556640625,0.67138671875,-4580,-2176,91,14400,877,-19778,79.1015625,4.8175048828125,-108.643798828125,350,3.5,0
97,17259,0.229,46402,229,1,110,1996,-469,0.0537109375,0.974609375,-0.22900390625,45,-75,-20,2.74658203125,-4.57763671875,-1.220703125,-1630,-1221,6798,18958,-921,-29262,104.139404296875,-5.0592041015625,-160.740966796875,357,3.57,0
98,17260,0.23,46403,230,2,-31,1931,648,-0.01513671875,0.94287109375,0.31640625,-9,48,31,-0.54931640625,2.9296875,1.89208984375,2301,-271,-4728,12938,16,5556,71.070556640625,0.087890625,30.52001953125,355,3.55,0
99,17261,0.235,46408,235,0,-66,2039,-249,-0.0322265625,0.99560546875,-0.12158203125,4,63,9,0.244140625,3.84521484375,0.54931640625,-4566,-2197,85,14399,879,-19776,79.0960693359375,4.8284912109375,-108.6328125,350,3.5,0
100,17262,0.236,46409,236,1,125,1997,-460,0.06103515625,0.97509765625,-0.224609375,5,-83,-30,0.30517578125,-5.06591796875,-1.8310546875,-1635,-1220,6792,18958,-919,-29265,104.139404296875,-5.0482177734375,-160.7574462890625,357,3.57,0
101,17263,0.237,46410,237,2,-30,1931,648,-0.0146484375,0.94287109375,0.31640625,-10,46,28,-0.6103515625,2.8076171875,1.708984375,2306,-275,-4726,12938,16,5563,71.070556640625,0.087890625,30.5584716796875,356,3.56,0
102,17264,0.242,46415,242,0,-66,2039,-249,-0.0322265625,0.99560546875,-0.12158203125,4,63,9,0.244140625,3.84521484375,0.54931640625,-4566,-2197,85,14399,879,-19776,79.0960693359375,4.8284912109375,-108.6328125,350,3.5,0
103,17265,0.243,46416,243,1,133,1979,-463,0.06494140625,0.96630859375,-0.22607421875,-9,-77,-30,-0.54931640625,-4.69970703125,-1.8310546875,-1655,-1227,6832,18958,-916,-29268,104.139404296875,-5.03173828125,-160.77392578125,357,3.57,0
104,17266,0.244,46417,244,2,-30,1933,649,-0.0146484375,0.94384765625,0.31689453125,-13,45,26,-0.79345703125,2.74658203125,1.5869140625,2320,-291,-4759,12938,16,5566,71.070556640625,0.087890625,30.574951171875,356,3.56,0
105,17267,0.249,46422,249,0,-80,2034,-249,-0.0390625,0.9931640625,-0.12158203125,4,44,3,0.244140625,2.685546875,0.18310546875,-4549,-2173,70,14406,885,-19778,79.134521484375,4.8614501953125,-108.643798828125,350,3.5,0
106,17268,0.25,46423,250,1,153,1946,-482,0.07470703125,0.9501953125,-0.2353515625,37,-57,-23,2.25830078125,-3.47900390625,-1.40380859375,-1638,-1199,6774,18960,-911,-29273,104.150390625,-5.0042724609375,-160.8013916015625,357,3.57,0
107,17269,0.251,46424,251,2,-30,1937,650,-0.0146484375,0.94580078125,0.3173828125,-17,43,27,-1.03759765625,2.62451171875,1.64794921875,2317,-290,-4751,12937,16,5569,71.0650634765625,0.087890625,30.5914306640625,356,3.56,0
108,17270,0.256,46429,256,0,-79,2035,-244,-0.03857421875,0.99365234375,-0.119140625,0,37,2,0.0,2.25830078125,0.1220703125,-4544,-2176,65,14405,887,-19777,79.1290283203125,4.8724365234375,-108.6383056640625,350,3.5,0
109,17271,0.257,46430,257,1,147,1946,-503,0.07177734375,0.9501953125,-0.24560546875,56,-54,-14,3.41796875,-3.2958984375,-0.8544921875,-1624,-1223,6775,18963,-910,-29276,104.1668701171875,-4.998779296875,-160.81787109375,357,3.57,0
110,17272,0.258,46431,258,2,-30,1941,653,-0.0146484375,0.94775390625,0.31884765625,-17,42,28,-1.03759765625,2.5634765625,1.708984375,2339,-328,-4696,12936,16,5575,71.0595703125,0.087890625,30.6243896484375,356,3.56,0
111,17273,0.263,46436,263,0,-80,2031,-237,-0.0390625,0.99169921875,-0.11572265625,2,32,-2,0.1220703125,1.953125,-0.1220703125,-4545,-2168,86,14413,892,-19782,79.1729736328125,4.89990234375,-108.665771484375,350,3.5,0
112,17274,0.264,46437,264,1,133,1973,-516,0.06494140625,0.96337890625,-0.251953125,61,-108,-2,3.72314453125,-6.591796875,-0.1220703125,-1600,-1189,6802,18971,-907,-29287,104.2108154296875,-4.9822998046875,-160.8782958984375,357,3.57,0
113,17275,0.265,46438,265,2,-29,1942,653,-0.01416015625,0.9482421875,0.31884765625,-9,39,27,-0.54931640625,2.38037109375,1.64794921875,2336,-331,-4704,12936,15,5577,71.0595703125,0.0823974609375,30.6353759765625,356,3.56,0
114,17276,0.27,46443,270,0,-83,2023,-240,-0.04052734375,0.98779296875,-0.1171875,5,31,-8,0.30517578125,1.89208984375,-0.48828125,-4536,-2157,114,14412,895,-19782,79.16748046875,4.9163818359375,-108.665771484375,350,3.5,0
115,17277,0.271,46444,271,1,134,1990,-502,0.0654296875,0.9716796875,-0.2451171875,53,-142,0,3.23486328125,-8.6669921875,0.0,-1618,-1196,6790,18974,-905,-29294,104.227294921875,-4.9713134765625,-160.916748046875,357,3.57,0
116,17278,0.28,46453,280,2,-30,1945,650,-0.0146484375,0.94970703125,0.3173828125,-4,30,29,-0.244140625,1.8310546875,1.77001953125,2352,-288,-4703,12936,15,5582,71.0595703125,0.0823974609375,30.662841796875,356,3.56,0
117,17279,0.28,46453,280,0,-83,2023,-240,-0.04052734375,0.98779296875,-0.1171875,5,31,-8,0.30517578125,1.89208984375,-0.48828125,-4536,-2157,114,14412,895,-19782,79.16748046875,4.9163818359375,-108.665771484375,350,3.5,0
118,17280,0.28,46453,280,1,137,1996,-494,0.06689453125,0.974609375,-0.2412109375,34,-167,-4,2.0751953125,-10.19287109375,-0.244140625,-1612,-1198,6829,18976,-902,-29303,104.23828125,-4.954833984375,-160.9661865234375,357,3.57,0
119,17281,0.28,46453,280,2,-29,1946,648,-0.01416015625,0.9501953125,0.31640625,-8,30,29,-0.48828125,1.8310546875,1.77001953125,2351,-303,-4705,12936,14,5585,71.0595703125,0.076904296875,30.6793212890625,356,3.56,0
120,17282,0.284,46457,284,0,-82,2020,-242,-0.0400390625,0.986328125,-0.1181640625,16,24,-6,0.9765625,1.46484375,-0.3662109375,-4580,-2151,130,14421,902,-19788,79.2169189453125,4.954833984375,-108.69873046875,350,3.5,0
121,17283,0.285,46458,285,1,141,1981,-491,0.06884765625,0.96728515625,-0.23974609375,11,-192,-8,0.67138671875,-11.71875,-0.48828125,-1639,-1197,6852,18979,-896,-29323,104.2547607421875,-4.921875,-161.0760498046875,357,3.57,0
122,17284,0.286,46459,286,2,-28,1946,646,-0.013671875,0.9501953125,0.3154296875,-12,33,28,-0.732421875,2.01416015625,1.708984375,2369,-292,-4709,12925,22,5584,70.9991455078125,0.120849609375,30.673828125,356,3.56,0
123,17285,0.291,46464,291,0,-82,2020,-242,-0.0400390625,0.986328125,-0.1181640625,24,22,-6,1.46484375,1.3427734375,-0.3662109375,-4545,-2170,144,14421,904,-19788,79.2169189453125,4.9658203125,-108.69873046875,350,3.5,0
124,17286,0.292,46465,292,1,136,1970,-485,0.06640625,0.9619140625,-0.23681640625,14,-205,-4,0.8544921875,-12.51220703125,-0.244140625,-1634,-1191,6837,18981,-894,-29333,104.2657470703125,-4.910888671875,-161.1309814453125,357,3.57,0
125,17287,0.293,46466,293,2,-26,1944,643,-0.0126953125,0.94921875,0.31396484375,-20,39,27,-1.220703125,2.38037109375,1.64794921875,2350,-270,-4651,12925,22,5581,70.9991455078125,0.120849609375,30.6573486328125,356,3.56,0
126,17288,0.298,46471,298,0,-78,2023,-239,-0.0380859375,0.98779296875,-0.11669921875,27,16,-1,1.64794921875,0.9765625,-0.06103515625,-4563,-2157,125,14421,909,-19789,79.2169189453125,4.9932861328125,-108.7042236328125,350,3.5,0
127,17289,0.299,46472,299,1,141,1961,-469,0.06884765625,0.95751953125,-0.22900390625,27,-222,1,1.64794921875,-13.5498046875,0.06103515625,-1629,-1196,6806,18986,-888,-29356,104.293212890625,-4.8779296875,-161.25732421875,357,3.57,0
128,17290,0.311,46484,311,2,-25,1944,644,-0.01220703125,0.94921875,0.314453125,-24,42,27,-1.46484375,2.5634765625,1.64794921875,2334,-251,-4594,12925,22,5581,70.9991455078125,0.120849609375,30.6573486328125,356,3.56,0
129,17291,0.312,46485,312,0,-73,2027,-242,-0.03564453125,0.98974609375,-0.1181640625,29,14,-4,1.77001953125,0.8544921875,-0.244140625,-4588,-2166,108,14433,910,-19795,79.2828369140625,4.998779296875,-108.7371826171875,350,3.5,0
130,17292,0.313,46486,313,1,144,1970,-461,0.0703125,0.9619140625,-0.22509765625,52,-220,5,3.173828125,-13.427734375,0.30517578125,-1613,-1180,6781,18993,-883,-29379,104.3316650390625,-4.8504638671875,-161.3836669921875,357,3.57,0
131,17293,0.314,46487,314,2,-29,1949,650,-0.01416015625,0.95166015625,0.3173828125,-28,31,28,-1.708984375,1.89208984375,1.708984375,2321,-241,-4554,12924,23,5578,70.99365234375,0.1263427734375,30.640869140625,356,3.56,0
132,17294,0.319,46492,319,0,-58,2028,-244,-0.0283203125,0.990234375,-0.119140625,31,6,-2,1.89208984375,0.3662109375,-0.1220703125,-4589,-2171,150,14432,917,-19798,79.27734375,5.0372314453125,-108.753662109375,350,3.5,0
133,17295,0.32,46493,320,1,146,1978,-455,0.0712890625,0.9658203125,-0.22216796875,59,-232,-2,3.60107421875,-14.16015625,-0.1220703125,-1604,-1176,6781,19002,-877,-29403,104.381103515625,-4.8175048828125,-161.5155029296875,357,3.57,0
134,17296,0.321,46494,321,2,-32,1951,651,-0.015625,0.95263671875,0.31787109375,-29,29,29,-1.77001953125,1.77001953125,1.77001953125,2329,-229,-4537,12924,23,5578,70.99365234375,0.1263427734375,30.640869140625,357,3.57,0
135,17297,0.326,46499,326,0,-53,2031,-246,-0.02587890625,0.99169921875,-0.1201171875,30,9,-3,1.8310546875,0.54931640625,-0.18310546875,-4586,-2169,136,14444,919,-19804,79.34326171875,5.0482177734375,-108.78662109375,350,3.5,0
136,17298,0.327,46500,327,1,145,1981,-460,0.07080078125,0.96728515625,-0.224609375,57,-229,-13,3.47900390625,-13.97705078125,-0.79345703125,-1594,-1184,6806,19006,-873,-29415,104.403076171875,-4.7955322265625,-161.5814208984375,357,3.57,0
137,17299,0.328,46501,328,2,-37,1954,650,-0.01806640625,0.9541015625,0.3173828125,-35,32,28,-2.13623046875,1.953125,1.708984375,2299,-303,-4555,12924,23,5578,70.99365234375,0.1263427734375,30.640869140625,357,3.57,0
138,17300,0.333,46506,333,0,-39,2035,-246,-0.01904296875,0.99365234375,-0.1201171875,23,13,-3,1.40380859375,0.79345703125,-0.18310546875,-4577,-2156,85,14443,924,-19806,79.3377685546875,5.07568359375,-108.797607421875,350,3.5,0
139,17301,0.334,46507,334,1,151,1977,-481,0.07373046875,0.96533203125,-0.23486328125,71,-209,-23,4.33349609375,-12.75634765625,-1.40380859375,-1600,-1215,6850,19015,-865,-29437,104.4525146484375,-4.7515869140625,-161.7022705078125,357,3.57,0
140,17302,0.335,46508,335,2,-39,1952,650,-0.01904296875,0.953125,0.3173828125,-38,33,27,-2.3193359375,2.01416015625,1.64794921875,2277,-313,-4514,12924,23,5574,70.99365234375,0.1263427734375,30.618896484375,357,3.57,0
141,17303,0.34,46513,340,0,-31,2037,-250,-0.01513671875,0.99462890625,-0.1220703125,19,15,-5,1.15966796875,0.91552734375,-0.30517578125,-4558,-2156,96,14442,926,-19806,79.332275390625,5.086669921875,-108.797607421875,350,3.5,0
142,17304,0.341,46514,341,1,155,1979,-498,0.07568359375,0.96630859375,-0.2431640625,76,-205,-29,4.638671875,-12.51220703125,-1.77001953125,-1590,-1225,6889,19020,-861,-29447,104.47998046875,-4.7296142578125,-161.7572021484375,357,3.57,0
143,17305,0.342,46515,342,2,-41,1950,651,-0.02001953125,0.9521484375,0.31787109375,-37,35,27,-2.25830078125,2.13623046875,1.64794921875,2297,-321,-4526,12924,23,5574,70.99365234375,0.1263427734375,30.618896484375,357,3.57,0
144,17306,0.347,46520,347,0,-25,2032,-253,-0.01220703125,0.9921875,-0.12353515625,14,15,-6,0.8544921875,0.91552734375,-0.3662109375,-4562,-2145,120,14454,928,-19812,79.398193359375,5.09765625,-108.83056640625,350,3.5,0
145,17307,0.348,46521,348,1,157,1979,-507,0.07666015625,0.96630859375,-0.24755859375,73,-204,-28,4.45556640625,-12.451171875,-1.708984375,-1618,-1229,6925,19025,-857,-29457,104.5074462890625,-4.7076416015625,-161.8121337890625,357,3.57,0
146,17308,0.349,46522,349,2,-41,1941,654,-0.02001953125,0.94775390625,0.3193359375,-29,30,26,-1.77001953125,1.8310546875,1.5869140625,2314,-314,-4488,12924,24,5574,70.99365234375,0.1318359375,30.618896484375,358,3.58,0
147,17309,0.354,46527,354,0,-20,2027,-254,-0.009765625,0.98974609375,-0.1240234375,18,17,-8,1.0986328125,1.03759765625,-0.48828125,-4553,-2162,152,14452,933,-19813,79.38720703125,5.1251220703125,-108.8360595703125,350,3.5,0
148,17310,0.355,46528,355,1,150,1972,-503,0.0732421875,0.962890625,-0.24560546875,23,-225,-10,1.40380859375,-13.73291015625,-0.6103515625,-1620,-1235,6967,19029,-850,-29480,104.5294189453125,-4.669189453125,-161.9384765625,357,3.57,0
149,17311,0.356,46529,356,2,-39,1938,657,-0.01904296875,0.9462890625,0.32080078125,-25,25,28,-1.52587890625,1.52587890625,1.708984375,2327,-298,-4546,12924,24,5572,70.99365234375,0.1318359375,30.60791015625,358,3.58,0
150,17312,0.361,46534,361,0,-17,2028,-254,-0.00830078125,0.990234375,-0.1240234375,17,17,-8,1.03759765625,1.03759765625,-0.48828125,-4549,-2169,138,14451,936,-19814,79.3817138671875,5.1416015625,-108.841552734375,350,3.5,0
151,17313,0.362,46535,362,1,148,1965,-495,0.072265625,0.95947265625,-0.24169921875,13,-253,-9,0.79345703125,-15.44189453125,-0.54931640625,-1640,-1230,6986,19031,-846,-29493,104.5404052734375,-4.647216796875,-162.0098876953125,357,3.57,0
152,17314,0.37,46543,370,2,-31,1934,662,-0.01513671875,0.9443359375,0.3232421875,-16,20,30,-0.9765625,1.220703125,1.8310546875,2358,-314,-4546,12923,25,5572,70.9881591796875,0.1373291015625,30.60791015625,358,3.58,0
153,17315,0.37,46543,370,0,-7,2017,-254,-0.00341796875,0.98486328125,-0.1240234375,20,4,-6,1.220703125,0.244140625,-0.3662109375,-4568,-2168,172,14463,937,-19820,79.4476318359375,5.1470947265625,-108.87451171875,350,3.5,0
154,17316,0.37,46543,370,1,156,1955,-478,0.076171875,0.95458984375,-0.2333984375,23,-256,-11,1.40380859375,-15.625,-0.67138671875,-1638,-1215,6988,19034,-842,-29506,104.556884765625,-4.625244140625,-162.081298828125,357,3.57,0
155,17317,0.37,46543,370,2,-25,1935,662,-0.01220703125,0.94482421875,0.3232421875,-20,18,30,-1.220703125,1.0986328125,1.8310546875,2349,-300,-4529,12923,25,5572,70.9881591796875,0.1373291015625,30.60791015625,358,3.58,0
156,17318,0.375,46548,375,0,-10,2023,-250,-0.0048828125,0.98779296875,-0.1220703125,24,-6,-5,1.46484375,-0.3662109375,-0.30517578125,-4569,-2158,210,14461,939,-19809,79.4366455078125,5.1580810546875,-108.8140869140625,350,3.5,0
157,17319,0.376,46549,376,1,168,1955,-469,0.08203125,0.95458984375,-0.22900390625,60,-223,-27,3.662109375,-13.61083984375,-1.64794921875,-1602,-1241,6920,19042,-833,-29529,104.600830078125,-4.5758056640625,-162.2076416015625,357,3.57,0
158,17320,0.377,46550,377,2,-21,1937,660,-0.01025390625,0.94580078125,0.322265625,-26,19,29,-1.5869140625,1.15966796875,1.77001953125,2349,-321,-4491,12923,25,5570,70.9881591796875,0.1373291015625,30.596923828125,358,3.58,0
159,17321,0.382,46555,382,0,-6,2020,-250,-0.0029296875,0.986328125,-0.1220703125,28,-13,-3,1.708984375,-0.79345703125,-0.18310546875,-4560,-2169,208,14461,939,-19809,79.4366455078125,5.1580810546875,-108.8140869140625,351,3.51,0
160,17322,0.383,46556,383,1,169,1962,-482,0.08251953125,0.9580078125,-0.2353515625,59,-228,-31,3.60107421875,-13.916015625,-1.89208984375,-1602,-1229,6932,19046,-828,-29541,104.622802734375,-4.54833984375,-162.2735595703125,357,3.57,0
161,17323,0.384,46557,384,2,-15,1935,658,-0.00732421875,0.94482421875,0.3212890625,-28,27,29,-1.708984375,1.64794921875,1.77001953125,2347,-316,-4521,12923,26,5570,70.9881591796875,0.142822265625,30.596923828125,359,3.59,0
162,17324,0.389,46562,389,0,-5,2020,-243,-0.00244140625,0.986328125,-0.11865234375,37,-25,0,2.25830078125,-1.52587890625,0.0,-4574,-2141,228,15868,812,-20423,87.16552734375,4.46044921875,-112.1868896484375,351,3.51,0
163,17325,0.39,46563,390,1,173,1977,-509,0.08447265625,0.96533203125,-0.24853515625,30,-282,-24,1.8310546875,-17.2119140625,-1.46484375,-1586,-1225,6928,19052,-818,-29569,104.65576171875,-4.493408203125,-162.4273681640625,357,3.57,0
164,17326,0.391,46564,391,2,-15,1933,658,-0.00732421875,0.94384765625,0.3212890625,-28,26,28,-1.708984375,1.5869140625,1.708984375,2352,-340,-4559,12923,26,5570,70.9881591796875,0.142822265625,30.596923828125,359,3.59,0
165,17327,0.396,46569,396,0,-6,2020,-240,-0.0029296875,0.986328125,-0.1171875,37,-21,2,2.25830078125,-1.28173828125,0.1220703125,-4549,-2135,212,15868,814,-20426,87.16552734375,4.471435546875,-112.203369140625,351,3.51,0
166,17328,0.397,46570,397,1,177,1977,-499,0.08642578125,0.96533203125,-0.24365234375,28,-299,-20,1.708984375,-18.24951171875,-1.220703125,-1554,-1240,6913,19055,-813,-29585,104.6722412109375,-4.4659423828125,-162.5152587890625,357,3.57,0
167,17329,0.398,46571,398,2,-14,1933,661,-0.0068359375,0.94384765625,0.32275390625,-19,20,32,-1.15966796875,1.220703125,1.953125,2332,-312,-4573,12923,26,5567,70.9881591796875,0.142822265625,30.5804443359375,359,3.59,0
168,17330,0.403,46576,403,0,-6,2020,-240,-0.0029296875,0.986328125,-0.1171875,37,-21,2,2.25830078125,-1.28173828125,0.1220703125,-4549,-2135,212,15868,814,-20426,87.16552734375,4.471435546875,-112.203369140625,351,3.51,0
169,17331,0.404,46577,404,1,179,1978,-470,0.08740234375,0.9658203125,-0.2294921875,38,-302,-17,2.3193359375,-18.4326171875,-1.03759765625,-1546,-1235,6895,19058,-808,-29600,104.688720703125,-4.4384765625,-162.59765625,357,3.57,0
170,17332,0.405,46578,405,2,-11,1934,662,-0.00537109375,0.9443359375,0.3232421875,-15,15,33,-0.91552734375,0.91552734375,2.01416015625,2332,-328,-4606,12922,26,5567,70.982666015625,0.142822265625,30.5804443359375,359,3.59,0
171,17333,0.41,46583,410,0,-13,2023,-248,-0.00634765625,0.98779296875,-0.12109375,38,-7,8,2.3193359375,-0.42724609375,0.48828125,-4560,-2138,173,15869,820,-20432,87.1710205078125,4.50439453125,-112.236328125,351,3.51,0
172,17334,0.411,46584,411,1,160,1985,-438,0.078125,0.96923828125,-0.2138671875,42,-304,-20,2.5634765625,-18.5546875,-1.220703125,-1562,-1263,6908,19065,-798,-29631,104.7271728515625,-4.383544921875,-162.7679443359375,357,3.57,0
173,17335,0.412,46585,412,2,-7,1937,661,-0.00341796875,0.94580078125,0.32275390625,-17,17,33,-1.03759765625,1.03759765625,2.01416015625,2323,-342,-4572,12922,26,5567,70.982666015625,0.142822265625,30.5804443359375,359,3.59,0
174,17336,0.417,46590,417,0,-18,2026,-253,-0.0087890625,0.9892578125,-0.12353515625,41,-4,11,2.50244140625,-0.244140625,0.67138671875,-4553,-2136,175,15870,822,-20433,87.176513671875,4.515380859375,-112.2418212890625,351,3.51,0
175,17337,0.418,46591,418,1,143,1997,-441,0.06982421875,0.97509765625,-0.21533203125,31,-314,-28,1.89208984375,-19.1650390625,-1.708984375,-1556,-1240,6926,19067,-792,-29648,104.7381591796875,-4.3505859375,-162.861328125,357,3.57,0
176,17338,0.419,46592,419,2,-7,1939,661,-0.00341796875,0.94677734375,0.32275390625,-33,30,29,-2.01416015625,1.8310546875,1.77001953125,2312,-326,-4607,12922,26,5565,70.982666015625,0.142822265625,30.5694580078125,359,3.59,0
177,17339,0.424,46597,424,0,-25,2030,-259,-0.01220703125,0.9912109375,-0.12646484375,43,14,11,2.62451171875,0.8544921875,0.67138671875,-4571,-2119,185,15871,825,-20434,87.1820068359375,4.5318603515625,-112.247314453125,351,3.51,0
178,17340,0.425,46598,425,1,104,1991,-479,0.05078125,0.97216796875,-0.23388671875,-5,-384,-32,-0.30517578125,-23.4375,-1.953125,-1551,-1222,6959,19070,-778,-29687,104.754638671875,-4.273681640625,-163.0755615234375,357,3.57,0
179,17341,0.426,46599,426,2,-10,1938,664,-0.0048828125,0.9462890625,0.32421875,-37,40,28,-2.25830078125,2.44140625,1.708984375,2306,-311,-4572,12922,26,5565,70.982666015625,0.142822265625,30.5694580078125,359,3.59,0
180,17342,0.433,46606,433,0,-34,2032,-265,-0.0166015625,0.9921875,-0.12939453125,42,21,13,2.5634765625,1.28173828125,0.79345703125,-4577,-2114,188,15871,826,-20434,87.1820068359375,4.537353515625,-112.247314453125,351,3.51,0
181,17343,0.434,46607,434,1,85,1978,-464,0.04150390625,0.9658203125,-0.2265625,-15,-422,-27,-0.91552734375,-25.7568359375,-1.64794921875,-1539,-1219,6939,19070,-771,-29709,104.754638671875,-4.2352294921875,-163.1964111328125,357,3.57,0
182,17344,0.434,46607,434,2,-19,1937,674,-0.00927734375,0.94580078125,0.3291015625,-28,35,36,-1.708984375,2.13623046875,2.197265625,2349,-294,-4594,12919,25,5571,70.9661865234375,0.1373291015625,30.6024169921875,359,3.59,0
183,17345,0.438,46611,438,0,-34,2032,-265,-0.0166015625,0.9921875,-0.12939453125,42,21,13,2.5634765625,1.28173828125,0.79345703125,-4577,-2114,188,15871,826,-20434,87.1820068359375,4.537353515625,-112.247314453125,351,3.51,0
184,17346,0.439,46612,439,1,73,1975,-428,0.03564453125,0.96435546875,-0.208984375,-22,-443,-25,-1.3427734375,-27.03857421875,-1.52587890625,-1515,-1235,6950,19071,-763,-29733,104.7601318359375,-4.1912841796875,-163.3282470703125,357,3.57,0
185,17347,0.44,46613,440,2,-21,1939,680,-0.01025390625,0.94677734375,0.33203125,-19,24,42,-1.15966796875,1.46484375,2.5634765625,2325,-298,-4592,12919,23,5573,70.9661865234375,0.1263427734375,30.6134033203125,359,3.59,0
186,17348,0.445,46618,445,0,-53,2036,-268,-0.02587890625,0.994140625,-0.130859375,32,39,5,1.953125,2.38037109375,0.30517578125,-4554,-2117,150,15872,832,-20432,87.1875,4.5703125,-112.236328125,351,3.51,0
187,17349,0.446,46619,446,1,53,1975,-380,0.02587890625,0.96435546875,-0.185546875,-21,-477,-33,-1.28173828125,-29.11376953125,-2.01416015625,-1493,-1253,6914,19072,-747,-29782,104.765625,-4.1033935546875,-163.597412109375,356,3.56,0
188,17350,0.447,46620,447,2,-20,1941,684,-0.009765625,0.94775390625,0.333984375,-12,16,45,-0.732421875,0.9765625,2.74658203125,2322,-319,-4643,12919,22,5575,70.9661865234375,0.120849609375,30.6243896484375,358,3.58,0
189,17351,0.452,46625,452,0,-56,2035,-270,-0.02734375,0.99365234375,-0.1318359375,30,41,1,1.8310546875,2.50244140625,0.06103515625,-4558,-2134,161,15872,834,-20431,87.1875,4.581298828125,-112.2308349609375,351,3.51,0
190,17352,0.453,46626,453,1,39,1988,-376,0.01904296875,0.970703125,-0.18359375,-27,-515,-38,-1.64794921875,-31.43310546875,-2.3193359375,-1486,-1267,6904,19072,-737,-29810,104.765625,-4.0484619140625,-163.751220703125,356,3.56,0
191,17353,0.454,46627,454,2,-9,1944,686,-0.00439453125,0.94921875,0.3349609375,-14,20,48,-0.8544921875,1.220703125,2.9296875,2324,-336,-4641,12918,19,5579,70.960693359375,0.1043701171875,30.6463623046875,358,3.58,0
192,17354,0.466,46639,466,0,-60,2029,-270,-0.029296875,0.99072265625,-0.1318359375,24,43,-8,1.46484375,2.62451171875,-0.48828125,-4563,-2122,150,15872,840,-20428,87.1875,4.6142578125,-112.21435546875,351,3.51,0
193,17355,0.466,46639,466,1,16,2023,-381,0.0078125,0.98779296875,-0.18603515625,-84,-610,-65,-5.126953125,-37.2314453125,-3.96728515625,-1476,-1255,6864,19067,-713,-29872,104.7381591796875,-3.9166259765625,-164.091796875,356,3.56,0
194,17356,0.466,46639,466,2,-4,1942,685,-0.001953125,0.9482421875,0.33447265625,-23,30,48,-1.40380859375,1.8310546875,2.9296875,2336,-306,-4678,12917,17,5582,70.9552001953125,0.0933837890625,30.662841796875,358,3.58,0
195,17357,0.466,46639,466,0,-57,2030,-269,-0.02783203125,0.9912109375,-0.13134765625,23,42,-10,1.40380859375,2.5634765625,-0.6103515625,-4565,-2102,129,15872,843,-20427,87.1875,4.6307373046875,-112.2088623046875,351,3.51,0
196,17358,0.467,46640,467,1,16,2033,-379,0.0078125,0.99267578125,-0.18505859375,-134,-652,-77,-8.1787109375,-39.794921875,-4.69970703125,-1452,-1263,6886,19061,-700,-29907,104.7052001953125,-3.84521484375,-164.2840576171875,356,3.56,0
197,17359,0.468,46641,468,2,0,1939,684,0.0,0.94677734375,0.333984375,-32,40,45,-1.953125,2.44140625,2.74658203125,2339,-320,-4712,12915,16,5585,70.9442138671875,0.087890625,30.6793212890625,358,3.58,0
198,17360,0.473,46646,473,0,-57,2026,-271,-0.02783203125,0.9892578125,-0.13232421875,19,42,-10,1.15966796875,2.5634765625,-0.6103515625,-4575,-2107,87,15871,846,-20426,87.1820068359375,4.647216796875,-112.203369140625,351,3.51,0
199,17361,0.474,46647,474,1,15,2040,-380,0.00732421875,0.99609375,-0.185546875,-185,-695,-90,-11.29150390625,-42.41943359375,-5.4931640625,-1422,-1278,6859,19052,-685,-29943,104.65576171875,-3.7628173828125,-164.4818115234375,356,3.56,0
200,17362,0.475,46648,475,2,-2,1930,689,-0.0009765625,0.9423828125,0.33642578125,-34,45,47,-2.0751953125,2.74658203125,2.86865234375,2349,-299,-4715,12912,14,5592,70.927734375,0.076904296875,30.7177734375,358,3.58,0
201,17363,0.48,46653,480,0,-47,2019,-276,-0.02294921875,0.98583984375,-0.134765625,21,39,-15,1.28173828125,2.38037109375,-0.91552734375,-4587,-2108,99,15870,852,-20425,87.176513671875,4.68017578125,-112.1978759765625,351,3.51,0
202,17364,0.481,46654,481,1,21,2027,-390,0.01025390625,0.98974609375,-0.1904296875,-279,-762,-118,-17.02880859375,-46.5087890625,-7.2021484375,-1412,-1265,6915,19026,-651,-30021,104.512939453125,-3.5760498046875,-164.9102783203125,356,3.56,0
203,17365,0.482,46655,482,2,-6,1928,692,-0.0029296875,0.94140625,0.337890625,-30,35,52,-1.8310546875,2.13623046875,3.173828125,2342,-290,-4697,12911,12,5595,70.9222412109375,0.06591796875,30.7342529296875,358,3.58,0
204,17366,0.487,46660,487,0,-49,2017,-275,-0.02392578125,0.98486328125,-0.13427734375,23,35,-13,1.40380859375,2.13623046875,-0.79345703125,-4597,-2119,57,15870,855,-20424,87.176513671875,4.6966552734375,-112.1923828125,351,3.51,0
205,17367,0.488,46661,488,1,29,2016,-391,0.01416015625,0.984375,-0.19091796875,-329,-794,-122,-20.08056640625,-48.4619140625,-7.4462890625,-1430,-1248,6912,19009,-634,-30062,104.4195556640625,-3.482666015625,-165.135498046875,356,3.56,0
206,17368,0.489,46662,489,2,-14,1922,694,-0.0068359375,0.9384765625,0.3388671875,-14,13,55,-0.8544921875,0.79345703125,3.35693359375,2351,-285,-4718,12910,8,5599,70.916748046875,0.0439453125,30.7562255859375,357,3.57,0
207,17369,0.494,46667,494,0,-46,2013,-279,-0.0224609375,0.98291015625,-0.13623046875,24,29,-7,1.46484375,1.77001953125,-0.42724609375,-4578,-2130,83,15869,861,-20423,87.1710205078125,4.7296142578125,-112.1868896484375,351,3.51,0
208,17370,0.495,46668,495,1,35,2005,-402,0.01708984375,0.97900390625,-0.1962890625,-391,-825,-130,-23.86474609375,-50.35400390625,-7.9345703125,-1422,-1281,6893,18989,-615,-30104,104.3096923828125,-3.3782958984375,-165.3662109375,356,3.56,0
209,17371,0.496,46669,496,2,-16,1921,693,-0.0078125,0.93798828125,0.33837890625,-6,5,55,-0.3662109375,0.30517578125,3.35693359375,2359,-318,-4719,12910,6,5600,70.916748046875,0.032958984375,30.76171875,357,3.57,0
210,17372,0.501,46674,501,0,-44,2011,-283,-0.021484375,0.98193359375,-0.13818359375,25,26,-7,1.52587890625,1.5869140625,-0.42724609375,-4570,-2134,94,15869,863,-20423,87.1710205078125,4.7406005859375,-112.1868896484375,351,3.51,0
211,17373,0.502,46675,502,1,33,1996,-422,0.01611328125,0.974609375,-0.2060546875,-464,-838,-152,-28.3203125,-51.1474609375,-9.27734375,-1388,-1286,6908,18942,-577,-30190,104.051513671875,-3.1695556640625,-165.838623046875,356,3.56,0
212,17374,0.503,46676,503,2,-17,1921,688,-0.00830078125,0.93798828125,0.3359375,-4,3,55,-0.244140625,0.18310546875,3.35693359375,2351,-299,-4706,12910,4,5602,70.916748046875,0.02197265625,30.772705078125,357,3.57,0
213,17375,0.508,46681,508,0,-44,2008,-286,-0.021484375,0.98046875,-0.1396484375,28,20,-4,1.708984375,1.220703125,-0.244140625,-4563,-2138,104,15868,866,-20423,87.16552734375,4.757080078125,-112.1868896484375,351,3.51,0
214,17376,0.509,46682,509,1,39,1992,-427,0.01904296875,0.97265625,-0.20849609375,-493,-828,-168,-30.09033203125,-50.537109375,-10.25390625,-1396,-1303,6881,18917,-556,-30231,103.9141845703125,-3.05419921875,-166.0638427734375,356,3.56,0
215,17377,0.51,46683,510,2,-16,1923,679,-0.0078125,0.93896484375,0.33154296875,-17,7,51,-1.03759765625,0.42724609375,3.11279296875,2389,-293,-4735,12909,0,5605,70.9112548828125,0.0,30.7891845703125,357,3.57,0
216,17378,0.515,46688,515,0,-45,2000,-294,-0.02197265625,0.9765625,-0.1435546875,31,14,-1,1.89208984375,0.8544921875,-0.06103515625,-4551,-2145,121,15867,870,-20406,87.1600341796875,4.779052734375,-112.093505859375,351,3.51,0
217,17379,0.516,46689,516,1,61,1980,-458,0.02978515625,0.966796875,-0.2236328125,-526,-803,-197,-32.1044921875,-49.01123046875,-12.02392578125,-1324,-1306,6899,18863,-514,-30312,103.6175537109375,-2.823486328125,-166.5087890625,356,3.56,0
218,17380,0.517,46690,517,2,-14,1922,677,-0.0068359375,0.9384765625,0.33056640625,-20,10,51,-1.220703125,0.6103515625,3.11279296875,2413,-331,-4746,12908,-2,5606,70.90576171875,-0.010986328125,30.794677734375,357,3.57,0
219,17381,0.525,46698,525,0,-50,1990,-293,-0.0244140625,0.9716796875,-0.14306640625,36,11,2,2.197265625,0.67138671875,0.1220703125,-4561,-2133,127,15867,870,-20406,87.1600341796875,4.779052734375,-112.093505859375,351,3.51,0
220,17382,0.525,46698,525,1,77,1965,-468,0.03759765625,0.95947265625,-0.228515625,-519,-792,-207,-31.67724609375,-48.33984375,-12.63427734375,-1297,-1315,6883,18836,-493,-30351,103.46923828125,-2.7081298828125,-166.7230224609375,355,3.55,0
221,17383,0.526,46699,526,2,-10,1918,677,-0.0048828125,0.9365234375,0.33056640625,-7,4,50,-0.42724609375,0.244140625,3.0517578125,2417,-359,-4703,12908,-6,5609,70.90576171875,-0.032958984375,30.8111572265625,357,3.57,0
222,17384,0.529,46702,529,0,-50,1990,-293,-0.0244140625,0.9716796875,-0.14306640625,36,11,2,2.197265625,0.67138671875,0.1220703125,-4561,-2133,127,15867,870,-20406,87.1600341796875,4.779052734375,-112.093505859375,351,3.51,0
223,17385,0.53,46703,530,1,106,1950,-484,0.0517578125,0.9521484375,-0.236328125,-507,-763,-209,-30.94482421875,-46.56982421875,-12.75634765625,-1277,-1324,6872,18810,-473,-30389,103.326416015625,-2.5982666015625,-166.9317626953125,355,3.55,0
224,17386,0.531,46704,531,2,-8,1917,675,-0.00390625,0.93603515625,0.32958984375,1,-5,51,0.06103515625,-0.30517578125,3.11279296875,2423,-345,-4702,12908,-8,5610,70.90576171875,-0.0439453125,30.816650390625,357,3.57,0
225,17387,0.536,46709,536,0,-51,1989,-300,-0.02490234375,0.97119140625,-0.146484375,46,12,9,2.8076171875,0.732421875,0.54931640625,-4529,-2136,94,15929,849,-20430,87.5006103515625,4.6636962890625,-112.225341796875,351,3.51,0
226,17388,0.537,46710,537,1,127,1938,-532,0.06201171875,0.9462890625,-0.259765625,-440,-744,-187,-26.85546875,-45.41015625,-11.41357421875,-1198,-1311,6883,18763,-434,-30463,103.0682373046875,-2.384033203125,-167.3382568359375,356,3.56,0
227,17389,0.538,46711,538,2,-4,1917,671,-0.001953125,0.93603515625,0.32763671875,4,-11,52,0.244140625,-0.67138671875,3.173828125,2428,-333,-4700,12909,-10,5610,70.9112548828125,-0.054931640625,30.816650390625,357,3.57,0
228,17390,0.543,46716,543,0,-48,1996,-303,-0.0234375,0.974609375,-0.14794921875,52,16,11,3.173828125,0.9765625,0.67138671875,-4538,-2142,98,15929,849,-20430,87.5006103515625,4.6636962890625,-112.225341796875,351,3.51,0
229,17391,0.544,46717,544,1,131,1933,-547,0.06396484375,0.94384765625,-0.26708984375,-409,-726,-172,-24.96337890625,-44.3115234375,-10.498046875,-1206,-1312,6858,18741,-416,-30498,102.9473876953125,-2.28515625,-167.530517578125,356,3.56,0
230,17392,0.545,46718,545,2,9,1919,661,0.00439453125,0.93701171875,0.32275390625,-2,-4,49,-0.1220703125,-0.244140625,2.99072265625,2437,-313,-4697,12904,-13,5612,70.8837890625,-0.0714111328125,30.82763671875,356,3.56,0
231,17393,0.55,46723,550,0,-48,2014,-306,-0.0234375,0.9833984375,-0.1494140625,53,21,18,3.23486328125,1.28173828125,1.0986328125,-4538,-2173,96,15945,843,-20441,87.5885009765625,4.6307373046875,-112.2857666015625,351,3.51,0
232,17394,0.551,46724,551,1,171,1986,-552,0.08349609375,0.9697265625,-0.26953125,-442,-551,-153,-26.9775390625,-33.63037109375,-9.33837890625,-1202,-1340,6827,18695,-386,-30555,102.6947021484375,-2.120361328125,-167.8436279296875,356,3.56,0
233,17395,0.552,46725,552,2,15,1921,655,0.00732421875,0.93798828125,0.31982421875,-11,3,48,-0.67138671875,0.18310546875,2.9296875,2441,-304,-4696,12904,-13,5612,70.8837890625,-0.0714111328125,30.82763671875,356,3.56,0
234,17396,0.557,46730,557,0,-50,2023,-305,-0.0244140625,0.98779296875,-0.14892578125,52,26,20,3.173828125,1.5869140625,1.220703125,-4551,-2173,105,15944,845,-20424,87.5830078125,4.6417236328125,-112.1923828125,351,3.51,0
235,17397,0.558,46731,558,1,179,1977,-556,0.08740234375,0.96533203125,-0.271484375,-409,-461,-149,-24.96337890625,-28.13720703125,-9.09423828125,-1158,-1338,6844,18675,-374,-30575,102.5848388671875,-2.054443359375,-167.9534912109375,356,3.56,0
236,17398,0.559,46732,559,2,23,1922,651,0.01123046875,0.9384765625,0.31787109375,-29,19,42,-1.77001953125,1.15966796875,2.5634765625,2428,-267,-4693,12904,-13,5610,70.8837890625,-0.0714111328125,30.816650390625,356,3.56,0
237,17399,0.564,46737,564,0,-50,2023,-305,-0.0244140625,0.98779296875,-0.14892578125,52,26,20,3.173828125,1.5869140625,1.220703125,-4551,-2173,105,15944,845,-20424,87.5830078125,4.6417236328125,-112.1923828125,351,3.51,0
238,17400,0.565,46738,565,1,184,1955,-547,0.08984375,0.95458984375,-0.26708984375,-306,-363,-134,-18.6767578125,-22.15576171875,-8.1787109375,-1141,-1338,6855,18661,-363,-30592,102.5079345703125,-1.9940185546875,-168.046875,356,3.56,0
239,17401,0.566,46739,566,2,24,1924,651,0.01171875,0.939453125,0.31787109375,-36,23,40,-2.197265625,1.40380859375,2.44140625,2406,-272,-4701,12903,-12,5610,70.8782958984375,-0.06591796875,30.816650390625,355,3.55,0
240,17402,0.571,46744,571,0,-60,2039,-313,-0.029296875,0.99560546875,-0.15283203125,37,26,20,2.25830078125,1.5869140625,1.220703125,-4548,-2150,87,15956,840,-20431,87.64892578125,4.6142578125,-112.2308349609375,351,3.51,0
241,17403,0.572,46745,572,1,203,1976,-532,0.09912109375,0.96484375,-0.259765625,-86,-249,-93,-5.2490234375,-15.19775390625,-5.67626953125,-1109,-1330,6852,18650,-347,-30616,102.447509765625,-1.9061279296875,-168.1787109375,356,3.56,0
242,17404,0.573,46746,573,2,24,1927,655,0.01171875,0.94091796875,0.31982421875,-43,25,40,-2.62451171875,1.52587890625,2.44140625,2405,-285,-4733,12903,-12,5610,70.8782958984375,-0.06591796875,30.816650390625,355,3.55,0
243,17405,0.578,46751,578,0,-62,2040,-316,-0.0302734375,0.99609375,-0.154296875,32,19,18,1.953125,1.15966796875,1.0986328125,-4531,-2157,86,15956,841,-20432,87.64892578125,4.6197509765625,-112.236328125,351,3.51,0
244,17406,0.579,46752,579,1,229,2023,-513,0.11181640625,0.98779296875,-0.25048828125,-23,-179,-77,-1.40380859375,-10.92529296875,-4.69970703125,-1086,-1323,6846,18649,-341,-30622,102.4420166015625,-1.8731689453125,-168.211669921875,356,3.56,0
245,17407,0.58,46753,580,2,25,1934,665,0.01220703125,0.9443359375,0.32470703125,-45,26,40,-2.74658203125,1.5869140625,2.44140625,2365,-293,-4716,12903,-12,5607,70.8782958984375,-0.06591796875,30.8001708984375,355,3.55,0
246,17408,0.589,46762,589,0,-62,2040,-316,-0.0302734375,0.99609375,-0.154296875,31,1,15,1.89208984375,0.06103515625,0.91552734375,-4546,-2154,123,15956,844,-20434,87.64892578125,4.63623046875,-112.247314453125,351,3.51,0
247,17409,0.589,46762,589,1,216,2079,-462,0.10546875,1.01513671875,-0.2255859375,-47,-15,-63,-2.86865234375,-0.91552734375,-3.84521484375,-1065,-1328,6945,18644,-334,-30623,102.41455078125,-1.834716796875,-168.2171630859375,356,3.56,0
248,17410,0.59,46763,590,2,25,1937,672,0.01220703125,0.94580078125,0.328125,-42,26,40,-2.5634765625,1.5869140625,2.44140625,2369,-285,-4731,12902,-13,5607,70.872802734375,-0.0714111328125,30.8001708984375,355,3.55,0
249,17411,0.592,46765,592,0,-56,2042,-311,-0.02734375,0.9970703125,-0.15185546875,31,-5,13,1.89208984375,-0.30517578125,0.79345703125,-4553,-2128,104,15956,845,-20435,87.64892578125,4.6417236328125,-112.2528076171875,351,3.51,0
250,17412,0.593,46766,593,1,197,2054,-453,0.09619140625,1.0029296875,-0.22119140625,-48,44,-63,-2.9296875,2.685546875,-3.84521484375,-1056,-1330,6987,18642,-332,-30618,102.403564453125,-1.82373046875,-168.189697265625,356,3.56,0
251,17413,0.594,46767,594,2,24,1940,682,0.01171875,0.947265625,0.3330078125,-29,28,40,-1.77001953125,1.708984375,2.44140625,2349,-316,-4724,12902,-13,5603,70.872802734375,-0.0714111328125,30.7781982421875,355,3.55,0
252,17414,0.599,46772,599,0,-56,2042,-311,-0.02734375,0.9970703125,-0.15185546875,31,-5,13,1.89208984375,-0.30517578125,0.79345703125,-4553,-2128,104,15956,845,-20435,87.64892578125,4.6417236328125,-112.2528076171875,351,3.51,0
253,17415,0.6,46773,600,1,183,2015,-470,0.08935546875,0.98388671875,-0.2294921875,-5,85,-52,-0.30517578125,5.18798828125,-3.173828125,-1037,-1332,6953,18643,-330,-30612,102.4090576171875,-1.812744140625,-168.15673828125,356,3.56,0
254,17416,0.601,46774,601,2,21,1940,686,0.01025390625,0.947265625,0.3349609375,-20,27,40,-1.220703125,1.64794921875,2.44140625,2336,-334,-4721,12902,-13,5603,70.872802734375,-0.0714111328125,30.7781982421875,355,3.55,0
255,17417,0.606,46779,606,0,-49,2041,-286,-0.02392578125,0.99658203125,-0.1396484375,46,-7,5,2.8076171875,-0.42724609375,0.30517578125,-4550,-2107,118,15957,851,-20441,87.6544189453125,4.6746826171875,-112.2857666015625,351,3.51,0
256,17418,0.615,46788,615,1,162,1991,-507,0.0791015625,0.97216796875,-0.24755859375,75,118,-10,4.57763671875,7.2021484375,-0.6103515625,-1019,-1336,6876,18650,-332,-30598,102.447509765625,-1.82373046875,-168.079833984375,356,3.56,0
257,17419,0.616,46789,616,2,7,1943,689,0.00341796875,0.94873046875,0.33642578125,-21,28,45,-1.28173828125,1.708984375,2.74658203125,2337,-277,-4694,12901,-13,5600,70.8673095703125,-0.0714111328125,30.76171875,354,3.54,0
258,17420,0.62,46793,620,0,-53,2029,-279,-0.02587890625,0.99072265625,-0.13623046875,60,-10,5,3.662109375,-0.6103515625,0.30517578125,-4545,-2092,108,15961,857,-20446,87.6763916015625,4.7076416015625,-112.313232421875,351,3.51,0
259,17421,0.621,46794,621,1,181,2029,-465,0.08837890625,0.99072265625,-0.22705078125,34,161,5,2.0751953125,9.82666015625,0.30517578125,-1019,-1337,6871,18653,-337,-30580,102.4639892578125,-1.8511962890625,-167.98095703125,356,3.56,0
260,17422,0.622,46795,622,2,3,1942,690,0.00146484375,0.9482421875,0.3369140625,-20,29,49,-1.220703125,1.77001953125,2.99072265625,2313,-299,-4688,12901,-13,5600,70.8673095703125,-0.0714111328125,30.76171875,354,3.54,0
261,17423,0.627,46800,627,0,-49,2027,-273,-0.02392578125,0.98974609375,-0.13330078125,66,-19,5,4.0283203125,-1.15966796875,0.30517578125,-4551,-2090,113,15963,859,-20448,87.6873779296875,4.7186279296875,-112.32421875,351,3.51,0
262,17424,0.628,46801,628,1,197,2034,-434,0.09619140625,0.9931640625,-0.2119140625,-65,199,-15,-3.96728515625,12.14599609375,-0.91552734375,-1032,-1355,6869,18646,-340,-30557,102.425537109375,-1.86767578125,-167.8546142578125,357,3.57,0
263,17425,0.629,46802,629,2,-1,1940,691,-0.00048828125,0.947265625,0.33740234375,-16,30,51,-0.9765625,1.8310546875,3.11279296875,2311,-309,-4655,12900,-13,5600,70.86181640625,-0.0714111328125,30.76171875,354,3.54,0
264,17426,0.634,46807,634,0,-46,2032,-267,-0.0224609375,0.9921875,-0.13037109375,66,-31,9,4.0283203125,-1.89208984375,0.54931640625,-4577,-2077,101,15964,861,-20452,87.69287109375,4.7296142578125,-112.34619140625,351,3.51,0
265,17427,0.635,46808,635,1,194,1985,-449,0.0947265625,0.96923828125,-0.21923828125,-71,175,-18,-4.33349609375,10.68115234375,-1.0986328125,-1040,-1357,6892,18641,-342,-30548,102.3980712890625,-1.878662109375,-167.80517578125,357,3.57,0
266,17428,0.636,46809,636,2,-8,1939,692,-0.00390625,0.94677734375,0.337890625,-12,26,53,-0.732421875,1.5869140625,3.23486328125,2313,-339,-4674,12900,-13,5596,70.86181640625,-0.0714111328125,30.73974609375,354,3.54,0
267,17429,0.641,46814,641,0,-39,2031,-253,-0.01904296875,0.99169921875,-0.12353515625,64,-53,11,3.90625,-3.23486328125,0.67138671875,-4590,-2082,75,15967,864,-20460,87.7093505859375,4.74609375,-112.39013671875,350,3.5,0
268,17430,0.642,46815,642,1,176,1949,-468,0.0859375,0.95166015625,-0.228515625,-43,107,-8,-2.62451171875,6.53076171875,-0.48828125,-1017,-1327,6898,18636,-344,-30535,102.37060546875,-1.8896484375,-167.7337646484375,357,3.57,0
269,17431,0.643,46816,643,2,-8,1936,694,-0.00390625,0.9453125,0.3388671875,-10,29,54,-0.6103515625,1.77001953125,3.2958984375,2322,-336,-4696,12900,-13,5596,70.86181640625,-0.0714111328125,30.73974609375,355,3.55,0
270,17432,0.648,46821,648,0,-34,2029,-243,-0.0166015625,0.99072265625,-0.11865234375,58,-62,13,3.5400390625,-3.7841796875,0.79345703125,-4612,-2100,87,15968,865,-20465,87.71484375,4.7515869140625,-112.4176025390625,350,3.5,0
271,17433,0.649,46822,649,1,158,1938,-486,0.0771484375,0.9462890625,-0.2373046875,-35,76,-2,-2.13623046875,4.638671875,-0.1220703125,-1022,-1325,6886,18631,-344,-30531,102.3431396484375,-1.8896484375,-167.7117919921875,357,3.57,0
272,17434,0.65,46823,650,2,-10,1934,691,-0.0048828125,0.9443359375,0.33740234375,0,31,49,0.0,1.89208984375,2.99072265625,2336,-345,-4719,12900,-15,5599,70.86181640625,-0.0823974609375,30.7562255859375,355,3.55,0
273,17435,0.655,46828,655,0,-27,2026,-228,-0.01318359375,0.9892578125,-0.111328125,49,-67,17,2.99072265625,-4.08935546875,1.03759765625,-4599,-2093,94,15970,868,-20475,87.725830078125,4.76806640625,-112.4725341796875,349,3.49,0
274,17436,0.656,46829,656,1,131,1941,-501,0.06396484375,0.94775390625,-0.24462890625,-31,51,1,-1.89208984375,3.11279296875,0.06103515625,-1019,-1342,6892,18630,-344,-30528,102.337646484375,-1.8896484375,-167.6953125,357,3.57,0
275,17437,0.657,46830,657,2,-14,1936,686,-0.0068359375,0.9453125,0.3349609375,-30,-8,42,-1.8310546875,-0.48828125,2.5634765625,2328,-357,-4686,12898,-17,5600,70.850830078125,-0.0933837890625,30.76171875,355,3.55,0
276,17438,0.662,46835,662,0,-28,2025,-229,-0.013671875,0.98876953125,-0.11181640625,48,-64,20,2.9296875,-3.90625,1.220703125,-4594,-2097,47,15970,869,-20479,87.725830078125,4.7735595703125,-112.4945068359375,349,3.49,0
277,17439,0.663,46836,663,1,68,1945,-511,0.033203125,0.94970703125,-0.24951171875,-8,40,0,-0.48828125,2.44140625,0.0,-1043,-1339,6876,18628,-346,-30523,102.32666015625,-1.900634765625,-167.6678466796875,357,3.57,0
278,17440,0.664,46837,664,2,-14,1929,686,-0.0068359375,0.94189453125,0.3349609375,-37,0,54,-2.25830078125,0.0,3.2958984375,2335,-360,-4669,12897,-20,5602,70.8453369140625,-0.10986328125,30.772705078125,355,3.55,0
279,17441,0.669,46842,669,0,-29,2032,-230,-0.01416015625,0.9921875,-0.1123046875,46,-59,24,2.8076171875,-3.60107421875,1.46484375,-4607,-2091,42,15971,870,-20484,87.7313232421875,4.779052734375,-112.52197265625,349,3.49,0
280,17442,0.678,46851,678,1,29,1955,-514,0.01416015625,0.95458984375,-0.2509765625,9,53,-1,0.54931640625,3.23486328125,-0.06103515625,-1027,-1355,6928,18627,-345,-30519,102.3211669921875,-1.8951416015625,-167.6458740234375,357,3.57,0
281,17443,0.678,46851,678,2,0,1921,692,0.0,0.93798828125,0.337890625,-26,21,37,-1.5869140625,1.28173828125,2.25830078125,2336,-378,-4655,12894,-22,5606,70.828857421875,-0.120849609375,30.794677734375,356,3.56,0
282,17444,0.678,46851,678,0,-33,2046,-249,-0.01611328125,0.9990234375,-0.12158203125,40,-48,31,2.44140625,-2.9296875,1.89208984375,-4582,-2068,56,15971,871,-20491,87.7313232421875,4.7845458984375,-112.5604248046875,348,3.48,0
283,17445,0.678,46851,678,1,-25,1969,-502,-0.01220703125,0.96142578125,-0.2451171875,15,91,-7,0.91552734375,5.55419921875,-0.42724609375,-1014,-1365,6927,18628,-347,-30508,102.32666015625,-1.9061279296875,-167.58544921875,357,3.57,0
284,17446,0.678,46851,678,2,-2,1918,692,-0.0009765625,0.9365234375,0.337890625,-41,5,39,-2.50244140625,0.30517578125,2.38037109375,2323,-379,-4682,12892,-24,5607,70.81787109375,-0.1318359375,30.8001708984375,356,3.56,0
285,17447,0.683,46856,683,0,-33,2053,-256,-0.01611328125,1.00244140625,-0.125,32,-42,33,1.953125,-2.5634765625,2.01416015625,-4575,-2076,57,15970,871,-20495,87.725830078125,4.7845458984375,-112.5823974609375,348,3.48,0
286,17448,0.684,46857,684,1,-42,1968,-484,-0.0205078125,0.9609375,-0.236328125,7,122,-7,0.42724609375,7.4462890625,-0.42724609375,-1003,-1379,6937,18627,-348,-30501,102.3211669921875,-1.91162109375,-167.5469970703125,357,3.57,0
287,17449,0.685,46858,685,2,5,1913,701,0.00244140625,0.93408203125,0.34228515625,-34,19,35,-2.0751953125,1.15966796875,2.13623046875,2307,-347,-4713,12889,-26,5611,70.8013916015625,-0.142822265625,30.8221435546875,356,3.56,0
288,17450,0.69,46863,690,0,-33,2053,-256,-0.01611328125,1.00244140625,-0.125,32,-42,33,1.953125,-2.5634765625,2.01416015625,-4575,-2076,57,15970,871,-20495,87.725830078125,4.7845458984375,-112.5823974609375,348,3.48,0
289,17451,0.691,46864,691,1,-59,1970,-470,-0.02880859375,0.9619140625,-0.2294921875,0,148,-10,0.0,9.033203125,-0.6103515625,-1001,-1389,6890,18627,-350,-30491,102.3211669921875,-1.922607421875,-167.4920654296875,357,3.57,0
290,17452,0.692,46865,692,2,5,1915,704,0.00244140625,0.93505859375,0.34375,-39,11,29,-2.38037109375,0.67138671875,1.77001953125,2312,-334,-4707,12887,-26,5612,70.7904052734375,-0.142822265625,30.82763671875,356,3.56,0
291,17453,0.697,46870,697,0,-39,2059,-273,-0.01904296875,1.00537109375,-0.13330078125,5,-24,20,0.30517578125,-1.46484375,1.220703125,-4576,-2110,51,15967,874,-20503,87.7093505859375,4.801025390625,-112.6263427734375,348,3.48,0
292,17454,0.698,46871,698,1,-85,1975,-440,-0.04150390625,0.96435546875,-0.21484375,-11,193,-26,-0.67138671875,11.77978515625,-1.5869140625,-977,-1422,6902,18625,-352,-30469,102.3101806640625,-1.93359375,-167.3712158203125,357,3.57,0
293,17455,0.699,46872,699,2,4,1915,707,0.001953125,0.93505859375,0.34521484375,-43,9,34,-2.62451171875,0.54931640625,2.0751953125,2294,-327,-4702,12885,-28,5613,70.7794189453125,-0.15380859375,30.8331298828125,356,3.56,0
294,17456,0.704,46877,704,0,-37,2058,-276,-0.01806640625,1.0048828125,-0.134765625,-4,-19,16,-0.244140625,-1.15966796875,0.9765625,-4578,-2131,38,15964,875,-20505,87.69287109375,4.8065185546875,-112.6373291015625,348,3.48,0
295,17457,0.705,46878,705,1,-92,1979,-435,-0.044921875,0.96630859375,-0.21240234375,-13,211,-36,-0.79345703125,12.87841796875,-2.197265625,-983,-1409,6901,18624,-352,-30457,102.3046875,-1.93359375,-167.3052978515625,357,3.57,0
296,17458,0.706,46879,706,2,8,1919,713,0.00390625,0.93701171875,0.34814453125,-35,15,28,-2.13623046875,0.91552734375,1.708984375,2316,-321,-4686,12882,-29,5616,70.762939453125,-0.1593017578125,30.849609375,356,3.56,0
297,17459,0.711,46884,711,0,-36,2040,-285,-0.017578125,0.99609375,-0.13916015625,-15,-22,9,-0.91552734375,-1.3427734375,0.54931640625,-4599,-2110,-3,15959,879,-20510,87.6654052734375,4.8284912109375,-112.664794921875,348,3.48,0
298,17460,0.712,46885,712,1,-91,1988,-437,-0.04443359375,0.970703125,-0.21337890625,-16,209,-55,-0.9765625,12.75634765625,-3.35693359375,-1002,-1397,6889,18620,-352,-30432,102.28271484375,-1.93359375,-167.16796875,357,3.57,0
299,17461,0.713,46886,713,2,8,1920,714,0.00390625,0.9375,0.3486328125,-35,11,27,-2.13623046875,0.67138671875,1.64794921875,2309,-323,-4698,12880,-30,5618,70.751953125,-0.164794921875,30.860595703125,356,3.56,0
300,17462,0.718,46891,718,0,-35,2035,-290,-0.01708984375,0.99365234375,-0.1416015625,-17,-29,8,-1.03759765625,-1.77001953125,0.48828125,-4588,-2088,-21,15956,881,-20513,87.64892578125,4.8394775390625,-112.6812744140625,348,3.48,0
301,17463,0.719,46892,719,1,-89,1993,-439,-0.04345703125,0.97314453125,-0.21435546875,-22,197,-58,-1.3427734375,12.02392578125,-3.5400390625,-1020,-1409,6892,18619,-351,-30420,102.2772216796875,-1.9281005859375,-167.10205078125,357,3.57,0
302,17464,0.72,46893,720,2,10,1921,719,0.0048828125,0.93798828125,0.35107421875,-28,16,26,-1.708984375,0.9765625,1.5869140625,2337,-316,-4732,12878,-31,5621,70.740966796875,-0.1702880859375,30.8770751953125,356,3.56,0
303,17465,0.725,46898,725,0,-35,2035,-290,-0.01708984375,0.99365234375,-0.1416015625,-17,-29,8,-1.03759765625,-1.77001953125,0.48828125,-4588,-2088,-21,15956,881,-20513,87.64892578125,4.8394775390625,-112.6812744140625,348,3.48,0
304,17466,0.726,46899,726,1,-84,1986,-443,-0.041015625,0.9697265625,-0.21630859375,-20,175,-61,-1.220703125,10.68115234375,-3.72314453125,-1017,-1401,6883,18617,-350,-30410,102.2662353515625,-1.922607421875,-167.047119140625,357,3.57,0
305,17467,0.727,46900,727,2,9,1923,718,0.00439453125,0.93896484375,0.3505859375,-29,10,22,-1.77001953125,0.6103515625,1.3427734375,2321,-289,-4730,12876,-31,5622,70.72998046875,-0.1702880859375,30.882568359375,356,3.56,0
306,17468,0.732,46905,732,0,-36,2020,-307,-0.017578125,0.986328125,-0.14990234375,-9,-40,2,-0.54931640625,-2.44140625,0.1220703125,-4565,-2070,37,15949,887,-20523,87.6104736328125,4.8724365234375,-112.7362060546875,347,3.47,0
307,17469,0.742,46915,742,2,7,1923,719,0.00341796875,0.93896484375,0.35107421875,-30,7,24,-1.8310546875,0.42724609375,1.46484375,2342,-278,-4743,12875,-32,5623,70.7244873046875,-0.17578125,30.8880615234375,356,3.56,0
308,17470,0.742,46915,742,0,-36,2024,-312,-0.017578125,0.98828125,-0.15234375,-2,-34,1,-0.1220703125,-2.0751953125,0.06103515625,-4576,-2039,50,15946,889,-20526,87.593994140625,4.8834228515625,-112.752685546875,348,3.48,0
309,17471,0.742,46915,742,1,-62,1982,-450,-0.0302734375,0.9677734375,-0.2197265625,2,97,-51,0.1220703125,5.92041015625,-3.11279296875,-1010,-1394,6910,18616,-345,-30388,102.2607421875,-1.8951416015625,-166.92626953125,357,3.57,0
310,17472,0.742,46915,742,2,5,1926,718,0.00244140625,0.9404296875,0.3505859375,-31,2,20,-1.89208984375,0.1220703125,1.220703125,2346,-299,-4716,12872,-33,5625,70.7080078125,-0.1812744140625,30.8990478515625,356,3.56,0
311,17473,0.746,46919,746,0,-31,2023,-324,-0.01513671875,0.98779296875,-0.158203125,7,-26,3,0.42724609375,-1.5869140625,0.18310546875,-4575,-2060,16,15943,893,-20531,87.5775146484375,4.9053955078125,-112.7801513671875,348,3.48,0
312,17474,0.748,46921,748,2,4,1927,716,0.001953125,0.94091796875,0.349609375,-35,-4,20,-2.13623046875,-0.244140625,1.220703125,2333,-308,-4695,12870,-34,5625,70.697021484375,-0.186767578125,30.8990478515625,356,3.56,0
313,17475,0.753,46926,753,0,-30,2020,-331,-0.0146484375,0.986328125,-0.16162109375,10,-20,4,0.6103515625,-1.220703125,0.244140625,-4568,-2064,12,15942,895,-20534,87.572021484375,4.9163818359375,-112.796630859375,348,3.48,0
314,17476,0.754,46927,754,1,-30,1993,-437,-0.0146484375,0.97314453125,-0.21337890625,23,18,-32,1.40380859375,1.0986328125,-1.953125,-1040,-1380,6847,18617,-340,-30381,102.2662353515625,-1.86767578125,-166.8878173828125,356,3.56,0
315,17477,0.755,46928,755,2,4,1927,715,0.001953125,0.94091796875,0.34912109375,-38,-5,18,-2.3193359375,-0.30517578125,1.0986328125,2329,-313,-4715,12869,-34,5625,70.6915283203125,-0.186767578125,30.8990478515625,356,3.56,0
316,17478,0.76,46933,760,0,-28,2024,-333,-0.013671875,0.98828125,-0.16259765625,17,-10,6,1.03759765625,-0.6103515625,0.3662109375,-4558,-2056,29,15941,897,-20535,87.5665283203125,4.9273681640625,-112.8021240234375,348,3.48,0
317,17479,0.762,46935,762,2,5,1929,713,0.00244140625,0.94189453125,0.34814453125,-42,-8,13,-2.5634765625,-0.48828125,0.79345703125,2350,-334,-4648,12865,-35,5625,70.6695556640625,-0.1922607421875,30.8990478515625,357,3.57,0
318,17480,0.767,46940,767,0,-29,2024,-332,-0.01416015625,0.98828125,-0.162109375,21,-2,11,1.28173828125,-0.1220703125,0.67138671875,-4562,-2050,66,15940,901,-20538,87.56103515625,4.9493408203125,-112.818603515625,349,3.49,0
319,17481,0.769,46942,769,2,5,1932,713,0.00244140625,0.943359375,0.34814453125,-46,-9,10,-2.8076171875,-0.54931640625,0.6103515625,2343,-346,-4679,12862,-35,5625,70.653076171875,-0.1922607421875,30.8990478515625,357,3.57,0
320,17482,0.781,46954,781,0,-30,2025,-334,-0.0146484375,0.98876953125,-0.1630859375,26,2,10,1.5869140625,0.1220703125,0.6103515625,-4562,-2045,57,15939,902,-20539,87.5555419921875,4.954833984375,-112.8240966796875,349,3.49,0
321,17483,0.783,46956,783,2,0,1939,715,0.0,0.94677734375,0.34912109375,-50,-13,4,-3.0517578125,-0.79345703125,0.244140625,2354,-316,-4609,12855,-35,5625,70.6146240234375,-0.1922607421875,30.8990478515625,357,3.57,0
322,17484,0.788,46961,788,0,-31,2025,-321,-0.01513671875,0.98876953125,-0.15673828125,34,-1,8,2.0751953125,-0.06103515625,0.48828125,-4573,-2041,26,15939,908,-20543,87.5555419921875,4.98779296875,-112.8460693359375,349,3.49,0
323,17485,0.789,46962,789,1,-19,1964,-449,-0.00927734375,0.958984375,-0.21923828125,44,-181,-4,2.685546875,-11.04736328125,-0.244140625,-1007,-1447,6852,18628,-326,-30414,102.32666015625,-1.790771484375,-167.069091796875,356,3.56,0
324,17486,0.79,46963,790,2,-3,1940,714,-0.00146484375,0.947265625,0.3486328125,-50,-16,3,-3.0517578125,-0.9765625,0.18310546875,2372,-320,-4614,12853,-34,5624,70.6036376953125,-0.186767578125,30.8935546875,357,3.57,0
325,17487,0.795,46968,795,0,-28,2031,-321,-0.013671875,0.99169921875,-0.15673828125,34,-2,11,2.0751953125,-0.1220703125,0.67138671875,-4570,-2059,37,15939,909,-20545,87.5555419921875,4.9932861328125,-112.8570556640625,349,3.49,0
326,17488,0.797,46970,797,2,-6,1940,710,-0.0029296875,0.947265625,0.3466796875,-48,-16,-2,-2.9296875,-0.9765625,-0.1220703125,2378,-304,-4678,12853,-34,5621,70.6036376953125,-0.186767578125,30.8770751953125,357,3.57,0
327,17489,0.802,46975,802,0,-25,2030,-312,-0.01220703125,0.9912109375,-0.15234375,25,-11,13,1.52587890625,-0.67138671875,0.79345703125,-4540,-2041,58,15938,913,-20548,87.550048828125,5.0152587890625,-112.87353515625,349,3.49,0
328,17490,0.804,46977,804,2,-7,1939,709,-0.00341796875,0.94677734375,0.34619140625,-49,-13,-4,-2.99072265625,-0.79345703125,-0.244140625,2376,-283,-4678,12853,-34,5621,70.6036376953125,-0.186767578125,30.8770751953125,357,3.57,0
329,17491,0.809,46982,809,0,-19,2029,-310,-0.00927734375,0.99072265625,-0.1513671875,17,-19,12,1.03759765625,-1.15966796875,0.732421875,-4520,-2021,70,15937,914,-20551,87.5445556640625,5.020751953125,-112.8900146484375,349,3.49,0
330,17492,0.811,46984,811,2,-7,1933,709,-0.00341796875,0.94384765625,0.34619140625,-47,-8,-9,-2.86865234375,-0.48828125,-0.54931640625,2368,-271,-4719,12841,-33,5622,70.5377197265625,-0.1812744140625,30.882568359375,357,3.57,0
331,17493,0.817,46990,817,1,18,1982,-431,0.0087890625,0.9677734375,-0.21044921875,50,-246,-5,3.0517578125,-15.0146484375,-0.30517578125,-977,-1431,6898,18644,-312,-30476,102.41455078125,-1.7138671875,-167.40966796875,356,3.56,0
332,17494,0.818,46991,818,2,-8,1929,710,-0.00390625,0.94189453125,0.3466796875,-50,-15,-13,-3.0517578125,-0.91552734375,-0.79345703125,2380,-287,-4740,12841,-33,5619,70.5377197265625,-0.1812744140625,30.8660888671875,357,3.57,0
333,17495,0.823,46996,823,0,-17,2017,-307,-0.00830078125,0.98486328125,-0.14990234375,-8,-36,10,-0.48828125,-2.197265625,0.6103515625,-4535,-2007,86,15934,917,-20557,87.528076171875,5.0372314453125,-112.9229736328125,349,3.49,0
334,17496,0.825,46998,825,2,-8,1924,711,-0.00390625,0.939453125,0.34716796875,-51,-20,-15,-3.11279296875,-1.220703125,-0.91552734375,2382,-282,-4710,12841,-33,5619,70.5377197265625,-0.1812744140625,30.8660888671875,357,3.57,0
335,17497,0.83,47003,830,0,-17,2008,-312,-0.00830078125,0.98046875,-0.15234375,-8,-35,8,-0.48828125,-2.13623046875,0.48828125,-4540,-2012,98,16052,861,-20644,88.17626953125,4.7296142578125,-113.40087890625,349,3.49,0
336,17498,0.832,47005,832,2,-5,1915,717,-0.00244140625,0.93505859375,0.35009765625,-37,-29,-18,-2.25830078125,-1.77001953125,-1.0986328125,2382,-279,-4727,12838,-33,5619,70.521240234375,-0.1812744140625,30.8660888671875,357,3.57,0
337,17499,0.839,47012,839,0,-20,2001,-316,-0.009765625,0.97705078125,-0.154296875,0,-36,11,0.0,-2.197265625,0.67138671875,-4551,-2014,91,16051,864,-20625,88.1707763671875,4.74609375,-113.2965087890625,350,3.5,0
338,17500,0.839,47012,839,2,-3,1913,716,-0.00146484375,0.93408203125,0.349609375,-35,-41,-18,-2.13623046875,-2.50244140625,-1.0986328125,2371,-278,-4738,12838,-33,5616,70.521240234375,-0.1812744140625,30.849609375,357,3.57,0
339,17501,0.844,47017,844,0,-20,1998,-318,-0.009765625,0.9755859375,-0.1552734375,7,-38,14,0.42724609375,-2.3193359375,0.8544921875,-4558,-2030,92,16051,864,-20625,88.1707763671875,4.74609375,-113.2965087890625,350,3.5,0
340,17502,0.845,47018,845,1,84,2025,-404,0.041015625,0.98876953125,-0.197265625,24,-148,-24,1.46484375,-9.033203125,-1.46484375,-973,-1416,6935,18658,-293,-30535,102.491455078125,-1.6094970703125,-167.7337646484375,355,3.55,0
341,17503,0.846,47019,846,2,3,1912,713,0.00146484375,0.93359375,0.34814453125,-34,-41,-15,-2.0751953125,-2.50244140625,-0.91552734375,2362,-289,-4762,12836,-33,5616,70.51025390625,-0.1812744140625,30.849609375,357,3.57,0
342,17504,0.851,47024,851,0,-20,1998,-318,-0.009765625,0.9755859375,-0.1552734375,7,-38,14,0.42724609375,-2.3193359375,0.8544921875,-4558,-2030,92,16051,864,-20625,88.1707763671875,4.74609375,-113.2965087890625,350,3.5,0
343,17505,0.853,47026,853,2,7,1911,711,0.00341796875,0.93310546875,0.34716796875,-39,-39,-16,-2.38037109375,-2.38037109375,-0.9765625,2358,-303,-4764,12836,-33,5616,70.51025390625,-0.1812744140625,30.849609375,357,3.57,0
344,17506,0.858,47031,858,0,-36,2014,-320,-0.017578125,0.9833984375,-0.15625,20,-31,20,1.220703125,-1.89208984375,1.220703125,-4552,-2032,100,16071,856,-20621,88.2806396484375,4.7021484375,-113.2745361328125,350,3.5,0
345,17507,0.859,47032,859,1,97,2017,-398,0.04736328125,0.98486328125,-0.1943359375,1,-82,-22,0.06103515625,-5.0048828125,-1.3427734375,-957,-1394,6897,18659,-287,-30548,102.4969482421875,-1.5765380859375,-167.80517578125,355,3.55,0
346,17508,0.86,47033,860,2,9,1909,710,0.00439453125,0.93212890625,0.3466796875,-41,-31,-17,-2.50244140625,-1.89208984375,-1.03759765625,2371,-300,-4756,12836,-33,5613,70.51025390625,-0.1812744140625,30.8331298828125,357,3.57,0
347,17509,0.865,47038,865,0,-39,2017,-320,-0.01904296875,0.98486328125,-0.15625,17,-31,23,1.03759765625,-1.89208984375,1.40380859375,-4548,-2026,111,16071,856,-20621,88.2806396484375,4.7021484375,-113.2745361328125,350,3.5,0
348,17510,0.866,47039,866,1,100,2016,-409,0.048828125,0.984375,-0.19970703125,0,-56,-21,0.0,-3.41796875,-1.28173828125,-962,-1392,6902,18659,-285,-30550,102.4969482421875,-1.5655517578125,-167.816162109375,355,3.55,0
349,17511,0.867,47040,867,2,11,1906,709,0.00537109375,0.9306640625,0.34619140625,-41,-32,-14,-2.50244140625,-1.953125,-0.8544921875,2371,-265,-4821,12834,-33,5613,70.499267578125,-0.1812744140625,30.8331298828125,357,3.57,0
350,17512,0.872,47045,872,0,-43,2021,-324,-0.02099609375,0.98681640625,-0.158203125,16,-44,24,0.9765625,-2.685546875,1.46484375,-4565,-2062,107,16084,850,-20631,88.35205078125,4.669189453125,-113.3294677734375,350,3.5,0
351,17513,0.874,47047,874,2,12,1904,711,0.005859375,0.9296875,0.34716796875,-35,-34,-10,-2.13623046875,-2.0751953125,-0.6103515625,2383,-278,-4814,12834,-33,5613,70.499267578125,-0.1812744140625,30.8331298828125,357,3.57,0
352,17514,0.879,47052,879,0,-47,2018,-324,-0.02294921875,0.9853515625,-0.158203125,18,-50,23,1.0986328125,-3.0517578125,1.40380859375,-4578,-2067,115,16083,852,-20612,88.3465576171875,4.68017578125,-113.22509765625,350,3.5,0
353,17515,0.88,47053,880,1,111,2010,-424,0.05419921875,0.9814453125,-0.20703125,7,4,-11,0.42724609375,0.244140625,-0.67138671875,-987,-1370,6898,18658,-282,-30550,102.491455078125,-1.549072265625,-167.816162109375,355,3.55,0
354,17516,0.881,47054,881,2,13,1905,713,0.00634765625,0.93017578125,0.34814453125,-19,-36,-2,-1.15966796875,-2.197265625,-0.1220703125,2371,-302,-4785,12834,-33,5609,70.499267578125,-0.1812744140625,30.8111572265625,357,3.57,0
355,17517,0.886,47059,886,0,-47,2018,-324,-0.02294921875,0.9853515625,-0.158203125,18,-50,23,1.0986328125,-3.0517578125,1.40380859375,-4578,-2067,115,16083,852,-20612,88.3465576171875,4.68017578125,-113.22509765625,350,3.5,0
356,17518,0.888,47061,888,2,15,1907,712,0.00732421875,0.93115234375,0.34765625,-17,-35,-1,-1.03759765625,-2.13623046875,-0.06103515625,2380,-308,-4739,12833,-33,5609,70.4937744140625,-0.1812744140625,30.8111572265625,357,3.57,0
357,17519,0.893,47066,893,0,-47,2018,-321,-0.02294921875,0.9853515625,-0.15673828125,17,-69,22,1.03759765625,-4.21142578125,1.3427734375,-4578,-2107,93,16081,854,-20621,88.3355712890625,4.691162109375,-113.2745361328125,351,3.51,0
358,17520,0.895,47068,895,2,17,1911,710,0.00830078125,0.93310546875,0.3466796875,-19,-30,2,-1.15966796875,-1.8310546875,0.1220703125,2371,-300,-4773,12833,-33,5609,70.4937744140625,-0.1812744140625,30.8111572265625,357,3.57,0
359,17521,0.903,47076,903,0,-49,2021,-318,-0.02392578125,0.98681640625,-0.1552734375,18,-72,22,1.0986328125,-4.39453125,1.3427734375,-4589,-2094,92,16080,855,-20626,88.330078125,4.6966552734375,-113.302001953125,351,3.51,0
360,17522,0.904,47077,904,1,108,1988,-445,0.052734375,0.970703125,-0.21728515625,-1,30,-12,-0.06103515625,1.8310546875,-0.732421875,-980,-1407,6844,18656,-280,-30542,102.48046875,-1.5380859375,-167.772216796875,355,3.55,0
361,17523,0.904,47077,904,2,19,1917,709,0.00927734375,0.93603515625,0.34619140625,-28,-14,3,-1.708984375,-0.8544921875,0.18310546875,2361,-270,-4788,12833,-33,5606,70.4937744140625,-0.1812744140625,30.794677734375,357,3.57,0
362,17524,0.907,47080,907,0,-45,2020,-320,-0.02197265625,0.986328125,-0.15625,9,-78,21,0.54931640625,-4.7607421875,1.28173828125,-4593,-2089,99,16077,857,-20637,88.3135986328125,4.7076416015625,-113.3624267578125,351,3.51,0
363,17525,0.908,47081,908,1,104,1983,-448,0.05078125,0.96826171875,-0.21875,8,27,-9,0.48828125,1.64794921875,-0.54931640625,-962,-1408,6857,18656,-280,-30540,102.48046875,-1.5380859375,-167.76123046875,355,3.55,0
364,17526,0.909,47082,909,2,19,1920,711,0.00927734375,0.9375,0.34716796875,-27,-10,4,-1.64794921875,-0.6103515625,0.244140625,2369,-270,-4820,12831,-33,5606,70.4827880859375,-0.1812744140625,30.794677734375,357,3.57,0
365,17527,0.914,47087,914,0,-44,2024,-315,-0.021484375,0.98828125,-0.15380859375,8,-77,19,0.48828125,-4.69970703125,1.15966796875,-4575,-2092,132,16075,858,-20643,88.3026123046875,4.713134765625,-113.3953857421875,351,3.51,0
366,17528,0.915,47088,915,1,84,1986,-453,0.041015625,0.9697265625,-0.22119140625,15,20,-7,0.91552734375,1.220703125,-0.42724609375,-980,-1409,6861,18656,-280,-30537,102.48046875,-1.5380859375,-167.7447509765625,355,3.55,0
367,17529,0.916,47089,916,2,18,1923,711,0.0087890625,0.93896484375,0.34716796875,-27,-15,4,-1.64794921875,-0.91552734375,0.244140625,2396,-289,-4837,12831,-33,5606,70.4827880859375,-0.1812744140625,30.794677734375,357,3.57,0
368,17530,0.921,47094,921,0,-39,2022,-311,-0.01904296875,0.9873046875,-0.15185546875,6,-71,18,0.3662109375,-4.33349609375,1.0986328125,-4563,-2094,108,16073,860,-20648,88.2916259765625,4.72412109375,-113.4228515625,351,3.51,0
369,17531,0.923,47096,923,2,20,1924,711,0.009765625,0.939453125,0.34716796875,-23,-24,7,-1.40380859375,-1.46484375,0.42724609375,2409,-279,-4817,12831,-33,5602,70.4827880859375,-0.1812744140625,30.772705078125,357,3.57,0
370,17532,0.928,47101,928,0,-35,2018,-313,-0.01708984375,0.9853515625,-0.15283203125,4,-60,16,0.244140625,-3.662109375,0.9765625,-4546,-2081,140,16069,863,-20657,88.2696533203125,4.7406005859375,-113.4722900390625,351,3.51,0
371,17533,0.93,47103,930,2,22,1923,711,0.0107421875,0.93896484375,0.34716796875,-19,-18,6,-1.15966796875,-1.0986328125,0.3662109375,2396,-287,-4822,12829,-33,5602,70.4718017578125,-0.1812744140625,30.772705078125,357,3.57,0
372,17534,0.935,47108,935,0,-33,2020,-308,-0.01611328125,0.986328125,-0.150390625,5,-55,13,0.30517578125,-3.35693359375,0.79345703125,-4558,-2084,120,16067,864,-20662,88.2586669921875,4.74609375,-113.499755859375,351,3.51,0
373,17535,0.937,47110,937,2,24,1924,707,0.01171875,0.939453125,0.34521484375,-23,-7,6,-1.40380859375,-0.42724609375,0.3662109375,2396,-250,-4756,12829,-33,5599,70.4718017578125,-0.1812744140625,30.7562255859375,357,3.57,0
374,17536,0.942,47115,942,0,-33,2020,-308,-0.01611328125,0.986328125,-0.150390625,5,-55,13,0.30517578125,-3.35693359375,0.79345703125,-4558,-2084,120,16067,864,-20662,88.2586669921875,4.74609375,-113.499755859375,351,3.51,0
375,17537,0.943,47116,943,1,39,1983,-433,0.01904296875,0.96826171875,-0.21142578125,22,8,-5,1.3427734375,0.48828125,-0.30517578125,-997,-1429,6788,18658,-278,-30533,102.491455078125,-1.527099609375,-167.7227783203125,355,3.55,0
376,17538,0.944,47117,944,2,24,1925,705,0.01171875,0.93994140625,0.34423828125,-29,-4,6,-1.77001953125,-0.244140625,0.3662109375,2397,-234,-4727,12829,-33,5599,70.4718017578125,-0.1812744140625,30.7562255859375,357,3.57,0
377,17539,0.949,47122,949,0,-25,2020,-308,-0.01220703125,0.986328125,-0.150390625,15,-40,9,0.91552734375,-2.44140625,0.54931640625,-4587,-2092,73,16063,870,-20672,88.2366943359375,4.779052734375,-113.5546875,350,3.5,0
378,17540,0.95,47123,950,1,23,1992,-426,0.01123046875,0.97265625,-0.2080078125,24,6,-7,1.46484375,0.3662109375,-0.42724609375,-980,-1442,6781,18660,-277,-30532,102.50244140625,-1.5216064453125,-167.71728515625,355,3.55,0
379,17541,0.951,47124,951,2,22,1924,705,0.0107421875,0.939453125,0.34423828125,-31,1,7,-1.89208984375,0.06103515625,0.42724609375,2397,-219,-4702,12828,-34,5600,70.46630859375,-0.186767578125,30.76171875,357,3.57,0
380,17542,0.956,47129,956,0,-23,2020,-305,-0.01123046875,0.986328125,-0.14892578125,13,-35,7,0.79345703125,-2.13623046875,0.42724609375,-4602,-2088,90,16062,872,-20675,88.231201171875,4.7900390625,-113.5711669921875,350,3.5,0
381,17543,0.957,47130,957,1,13,1999,-424,0.00634765625,0.97607421875,-0.20703125,27,4,-10,1.64794921875,0.244140625,-0.6103515625,-987,-1439,6782,18661,-277,-30531,102.5079345703125,-1.5216064453125,-167.7117919921875,355,3.55,0
382,17544,0.958,47131,958,2,15,1922,707,0.00732421875,0.9384765625,0.34521484375,-29,4,12,-1.77001953125,0.244140625,0.732421875,2393,-207,-4682,12828,-34,5597,70.46630859375,-0.186767578125,30.7452392578125,357,3.57,0
383,17545,0.968,47141,968,0,-19,2017,-305,-0.00927734375,0.98486328125,-0.14892578125,12,-33,6,0.732421875,-2.01416015625,0.3662109375,-4601,-2085,136,16059,875,-20681,88.2147216796875,4.8065185546875,-113.6041259765625,350,3.5,0
384,17546,0.978,47151,978,1,4,1998,-423,0.001953125,0.9755859375,-0.20654296875,26,1,-10,1.5869140625,0.06103515625,-0.6103515625,-1017,-1449,6803,18664,-276,-30530,102.5244140625,-1.51611328125,-167.706298828125,355,3.55,0
385,17547,0.978,47151,978,1,-1,1992,-420,-0.00048828125,0.97265625,-0.205078125,26,-8,-11,1.5869140625,-0.48828125,-0.67138671875,-1013,-1456,6794,18665,-274,-30530,102.5299072265625,-1.505126953125,-167.706298828125,355,3.55,0
386,17548,0.979,47152,979,2,5,1918,710,0.00244140625,0.9365234375,0.3466796875,-24,-3,21,-1.46484375,-0.18310546875,1.28173828125,2415,-230,-4707,12826,-34,5595,70.455322265625,-0.186767578125,30.7342529296875,357,3.57,0
387,17549,0.984,47157,984,0,-6,2019,-309,-0.0029296875,0.98583984375,-0.15087890625,3,-12,7,0.18310546875,-0.732421875,0.42724609375,-4556,-2094,139,16053,883,-20690,88.1817626953125,4.8504638671875,-113.653564453125,349,3.49,0
388,17550,0.985,47158,985,1,-1,1989,-409,-0.00048828125,0.97119140625,-0.19970703125,28,-7,-10,1.708984375,-0.42724609375,-0.6103515625,-1021,-1425,6809,18668,-273,-30530,102.54638671875,-1.4996337890625,-167.706298828125,355,3.55,0
389,17551,0.986,47159,986,2,4,1919,708,0.001953125,0.93701171875,0.345703125,-26,-4,21,-1.5869140625,-0.244140625,1.28173828125,2410,-234,-4714,12826,-34,5595,70.455322265625,-0.186767578125,30.7342529296875,357,3.57,0
390,17552,0.991,47164,991,0,-6,2021,-310,-0.0029296875,0.98681640625,-0.1513671875,0,-5,7,0.0,-0.30517578125,0.42724609375,-4531,-2087,141,16051,885,-20692,88.1707763671875,4.8614501953125,-113.66455078125,349,3.49,0
391,17553,0.992,47165,992,1,-1,1988,-406,-0.00048828125,0.970703125,-0.1982421875,30,-8,-10,1.8310546875,-0.48828125,-0.6103515625,-1013,-1428,6814,18669,-272,-30530,102.5518798828125,-1.494140625,-167.706298828125,355,3.55,0
392,17554,0.993,47166,993,2,3,1921,706,0.00146484375,0.93798828125,0.3447265625,-31,-2,23,-1.89208984375,-0.1220703125,1.40380859375,2391,-245,-4716,12825,-34,5595,70.4498291015625,-0.186767578125,30.7342529296875,357,3.57,0
393,17555,0.998,47171,998,0,4,2017,-313,0.001953125,0.98486328125,-0.15283203125,-1,5,9,-0.06103515625,0.30517578125,0.54931640625,-4523,-2084,124,16047,889,-20693,88.1488037109375,4.8834228515625,-113.6700439453125,349,3.49,0
394,17556,1.014,47187,1014,2,3,1923,706,0.00146484375,0.93896484375,0.3447265625,-33,-1,22,-2.01416015625,-0.06103515625,1.3427734375,2386,-250,-4740,12825,-34,5592,70.4498291015625,-0.186767578125,30.7177734375,357,3.57,0
395,17557,1.014,47187,1014,0,6,2015,-313,0.0029296875,0.98388671875,-0.15283203125,6,17,5,0.3662109375,1.03759765625,0.30517578125,-4516,-2084,104,16046,891,-20694,88.143310546875,4.8944091796875,-113.675537109375,349,3.49,0
396,17558,1.019,47192,1019,0,-2,2011,-311,-0.0009765625,0.98193359375,-0.15185546875,16,29,6,0.9765625,1.77001953125,0.3662109375,-4550,-2081,81,16043,896,-20693,88.1268310546875,4.921875,-113.6700439453125,349,3.49,0
397,17559,1.02,47193,1020,1,30,2002,-411,0.0146484375,0.9775390625,-0.20068359375,33,-13,-16,2.01416015625,-0.79345703125,-0.9765625,-1001,-1434,6846,18668,-271,-31260,102.54638671875,-1.4886474609375,-171.71630859375,355,3.55,0
398,17560,1.021,47194,1021,2,1,1926,710,0.00048828125,0.9404296875,0.3466796875,-38,2,19,-2.3193359375,0.1220703125,1.15966796875,2362,-282,-4651,12823,-34,5590,70.4388427734375,-0.186767578125,30.706787109375,357,3.57,0
399,17561,1.026,47199,1026,0,-9,2010,-304,-0.00439453125,0.9814453125,-0.1484375,17,32,8,1.03759765625,1.953125,0.48828125,-4545,-2069,85,16042,898,-20692,88.121337890625,4.932861328125,-113.66455078125,349,3.49,0
400,17562,1.028,47201,1028,2,2,1923,710,0.0009765625,0.93896484375,0.3466796875,-36,-3,17,-2.197265625,-0.18310546875,1.03759765625,2354,-286,-4625,12822,-34,5590,70.433349609375,-0.186767578125,30.706787109375,357,3.57,0
401,17563,1.04,47213,1040,0,-17,2009,-300,-0.00830078125,0.98095703125,-0.146484375,23,27,9,1.40380859375,1.64794921875,0.54931640625,-4579,-2070,119,16041,902,-20692,88.1158447265625,4.954833984375,-113.66455078125,349,3.49,0
402,17564,1.04,47213,1040,1,45,2017,-420,0.02197265625,0.98486328125,-0.205078125,21,-19,-13,1.28173828125,-1.15966796875,-0.79345703125,-967,-1404,6811,18529,-191,-31234,101.7828369140625,-1.0491943359375,-171.573486328125,355,3.55,0
403,17565,1.04,47213,1040,2,3,1921,709,0.00146484375,0.93798828125,0.34619140625,-33,-4,18,-2.01416015625,-0.244140625,1.0986328125,2327,-303,-4623,12822,-34,5590,70.433349609375,-0.186767578125,30.706787109375,357,3.57,0
404,17566,1.04,47213,1040,0,-21,2010,-296,-0.01025390625,0.9814453125,-0.14453125,23,27,14,1.40380859375,1.64794921875,0.8544921875,-4577,-2064,114,16041,903,-20691,88.1158447265625,4.9603271484375,-113.6590576171875,349,3.49,0
405,17567,1.042,47215,1042,2,4,1919,707,0.001953125,0.93701171875,0.34521484375,-32,-4,18,-1.953125,-0.244140625,1.0986328125,2339,-295,-4611,12822,-34,5588,70.433349609375,-0.186767578125,30.69580078125,356,3.56,0
406,17568,1.047,47220,1047,0,-26,2015,-294,-0.0126953125,0.98388671875,-0.1435546875,27,28,17,1.64794921875,1.708984375,1.03759765625,-4559,-2054,133,16041,904,-20691,88.1158447265625,4.9658203125,-113.6590576171875,349,3.49,0
407,17569,1.049,47222,1049,2,5,1916,705,0.00244140625,0.935546875,0.34423828125,-37,3,16,-2.25830078125,0.18310546875,0.9765625,2328,-303,-4643,12821,-34,5588,70.4278564453125,-0.186767578125,30.69580078125,356,3.56,0
408,17570,1.054,47227,1054,0,-38,2025,-301,-0.0185546875,0.98876953125,-0.14697265625,29,30,22,1.77001953125,1.8310546875,1.3427734375,-4553,-2061,147,16041,907,-20690,88.1158447265625,4.9822998046875,-113.653564453125,349,3.49,0
409,17571,1.056,47229,1056,2,4,1916,705,0.001953125,0.935546875,0.34423828125,-41,7,17,-2.50244140625,0.42724609375,1.03759765625,2332,-312,-4648,12821,-34,5588,70.4278564453125,-0.186767578125,30.69580078125,356,3.56,0
410,17572,1.061,47234,1061,0,-41,2032,-303,-0.02001953125,0.9921875,-0.14794921875,27,28,22,1.64794921875,1.708984375,1.3427734375,-4546,-2065,151,16040,908,-20690,88.1103515625,4.98779296875,-113.653564453125,350,3.5,0
411,17573,1.063,47236,1063,2,1,1916,708,0.00048828125,0.935546875,0.345703125,-44,6,18,-2.685546875,0.3662109375,1.0986328125,2369,-294,-4666,12821,-34,5585,70.4278564453125,-0.186767578125,30.6793212890625,356,3.56,0
412,17574,1.068,47241,1068,0,-48,2036,-314,-0.0234375,0.994140625,-0.1533203125,19,25,20,1.15966796875,1.52587890625,1.220703125,-4525,-2066,167,16039,910,-20689,88.1048583984375,4.998779296875,-113.6480712890625,350,3.5,0
413,17575,1.07,47243,1070,2,0,1918,710,0.0,0.9365234375,0.3466796875,-42,3,17,-2.5634765625,0.18310546875,1.03759765625,2363,-300,-4680,12819,-34,5585,70.4168701171875,-0.186767578125,30.6793212890625,356,3.56,0
414,17576,1.075,47248,1075,0,-56,2037,-313,-0.02734375,0.99462890625,-0.15283203125,11,16,19,0.67138671875,0.9765625,1.15966796875,-4527,-2050,174,16038,911,-20690,88.099365234375,5.0042724609375,-113.653564453125,350,3.5,0
415,17577,1.077,47250,1077,2,0,1920,713,0.0,0.9375,0.34814453125,-39,-1,17,-2.38037109375,-0.06103515625,1.03759765625,2362,-314,-4708,12819,-34,5585,70.4168701171875,-0.186767578125,30.6793212890625,356,3.56,0
416,17578,1.082,47255,1082,0,-51,2035,-314,-0.02490234375,0.99365234375,-0.1533203125,7,11,18,0.42724609375,0.67138671875,1.0986328125,-4542,-2046,198,16036,913,-20691,88.08837890625,5.0152587890625,-113.6590576171875,350,3.5,0
417,17579,1.084,47257,1084,2,0,1924,718,0.0,0.939453125,0.3505859375,-40,-7,16,-2.44140625,-0.42724609375,0.9765625,2361,-294,-4727,12819,-34,5582,70.4168701171875,-0.186767578125,30.662841796875,356,3.56,0
418,17580,1.089,47262,1089,0,-54,2026,-320,-0.0263671875,0.9892578125,-0.15625,-2,-4,13,-0.1220703125,-0.244140625,0.79345703125,-4544,-2030,158,16033,916,-20693,88.0718994140625,5.03173828125,-113.6700439453125,350,3.5,0
419,17581,1.091,47264,1091,2,1,1926,719,0.00048828125,0.9404296875,0.35107421875,-43,-9,13,-2.62451171875,-0.54931640625,0.79345703125,2369,-310,-4726,12818,-34,5582,70.411376953125,-0.186767578125,30.662841796875,356,3.56,0
420,17582,1.103,47276,1103,0,-51,2020,-319,-0.02490234375,0.986328125,-0.15576171875,3,-7,14,0.18310546875,-0.42724609375,0.8544921875,-4548,-2044,140,16031,917,-20695,88.0609130859375,5.0372314453125,-113.6810302734375,350,3.5,0
421,17583,1.103,47276,1103,1,62,1990,-420,0.0302734375,0.9716796875,-0.205078125,15,-52,-10,0.91552734375,-3.173828125,-0.6103515625,-1036,-1371,6955,18552,-253,-31267,101.9091796875,-1.3897705078125,-171.7547607421875,356,3.56,0
422,17584,1.103,47276,1103,2,0,1928,719,0.0,0.94140625,0.35107421875,-41,-17,14,-2.50244140625,-1.03759765625,0.8544921875,2363,-338,-4720,12818,-34,5580,70.411376953125,-0.186767578125,30.65185546875,356,3.56,0
423,17585,1.103,47276,1103,0,-51,2020,-319,-0.02490234375,0.986328125,-0.15576171875,3,-7,14,0.18310546875,-0.42724609375,0.8544921875,-4548,-2044,140,16031,917,-20695,88.0609130859375,5.0372314453125,-113.6810302734375,350,3.5,0
424,17586,1.104,47277,1104,1,66,1993,-425,0.0322265625,0.97314453125,-0.20751953125,19,-48,-11,1.15966796875,-2.9296875,-0.67138671875,-1016,-1369,6965,18552,-253,-31261,101.9091796875,-1.3897705078125,-171.7218017578125,356,3.56,0
425,17587,1.105,47278,1105,2,1,1928,719,0.00048828125,0.94140625,0.35107421875,-39,-20,13,-2.38037109375,-1.220703125,0.79345703125,2360,-340,-4756,12818,-34,5580,70.411376953125,-0.186767578125,30.65185546875,356,3.56,0
426,17588,1.11,47283,1110,0,-47,2006,-319,-0.02294921875,0.9794921875,-0.15576171875,17,-17,10,1.03759765625,-1.03759765625,0.6103515625,-4561,-2012,97,16028,922,-20701,88.04443359375,5.064697265625,-113.7139892578125,351,3.51,0
427,17589,1.111,47284,1111,1,61,2004,-430,0.02978515625,0.978515625,-0.2099609375,20,-37,-9,1.220703125,-2.25830078125,-0.54931640625,-1007,-1379,6949,18556,-265,-31266,101.93115234375,-1.4556884765625,-171.749267578125,356,3.56,0
428,17590,1.112,47285,1112,2,2,1926,717,0.0009765625,0.9404296875,0.35009765625,-38,-21,11,-2.3193359375,-1.28173828125,0.67138671875,2334,-324,-4775,12816,-33,5580,70.400390625,-0.1812744140625,30.65185546875,356,3.56,0
429,17591,1.117,47290,1117,0,-48,2011,-310,-0.0234375,0.98193359375,-0.1513671875,25,-24,10,1.52587890625,-1.46484375,0.6103515625,-4555,-2004,96,16027,924,-20704,88.0389404296875,5.07568359375,-113.73046875,351,3.51,0
430,17592,1.119,47292,1119,2,7,1920,711,0.00341796875,0.9375,0.34716796875,-34,-15,10,-2.0751953125,-0.91552734375,0.6103515625,2339,-342,-4774,12816,-33,5577,70.400390625,-0.1812744140625,30.6353759765625,355,3.55,0
431,17593,1.124,47297,1124,0,-46,2017,-304,-0.0224609375,0.98486328125,-0.1484375,29,-28,10,1.77001953125,-1.708984375,0.6103515625,-4562,-1990,106,16026,927,-20710,88.033447265625,5.0921630859375,-113.763427734375,351,3.51,0
432,17594,1.126,47299,1126,2,10,1918,708,0.0048828125,0.9365234375,0.345703125,-34,-10,10,-2.0751953125,-0.6103515625,0.6103515625,2332,-354,-4774,12816,-33,5577,70.400390625,-0.1812744140625,30.6353759765625,355,3.55,0
433,17595,1.131,47304,1131,0,-45,2021,-299,-0.02197265625,0.98681640625,-0.14599609375,26,-31,11,1.5869140625,-1.89208984375,0.67138671875,-4554,-1987,101,16026,929,-20713,88.033447265625,5.1031494140625,-113.7799072265625,351,3.51,0
434,17596,1.133,47306,1133,2,12,1916,706,0.005859375,0.935546875,0.3447265625,-44,3,10,-2.685546875,0.18310546875,0.6103515625,2324,-334,-4784,12815,-33,5577,70.3948974609375,-0.1812744140625,30.6353759765625,356,3.56,0
435,17597,1.138,47311,1138,0,-45,2021,-299,-0.02197265625,0.98681640625,-0.14599609375,26,-31,11,1.5869140625,-1.89208984375,0.67138671875,-4554,-1987,101,16026,929,-20713,88.033447265625,5.1031494140625,-113.7799072265625,351,3.51,0
436,17598,1.14,47313,1140,2,10,1916,707,0.0048828125,0.935546875,0.34521484375,-47,7,11,-2.86865234375,0.42724609375,0.67138671875,2344,-320,-4777,12815,-33,5573,70.3948974609375,-0.1812744140625,30.6134033203125,356,3.56,0
437,17599,1.145,47318,1145,0,-42,2026,-295,-0.0205078125,0.9892578125,-0.14404296875,15,-34,9,0.91552734375,-2.0751953125,0.54931640625,-4567,-1988,144,16023,934,-20722,88.0169677734375,5.130615234375,-113.829345703125,350,3.5,0
438,17600,1.147,47320,1147,2,6,1916,709,0.0029296875,0.935546875,0.34619140625,-46,8,13,-2.8076171875,0.48828125,0.79345703125,2330,-304,-4777,12815,-33,5573,70.3948974609375,-0.1812744140625,30.6134033203125,357,3.57,0
439,17601,1.152,47325,1152,0,-32,2028,-300,-0.015625,0.990234375,-0.146484375,12,-33,10,0.732421875,-2.01416015625,0.6103515625,-4533,-1998,134,16021,936,-20725,88.0059814453125,5.1416015625,-113.8458251953125,350,3.5,0
440,17602,1.153,47326,1153,1,36,1983,-444,0.017578125,0.96826171875,-0.216796875,13,5,-5,0.79345703125,0.30517578125,-0.30517578125,-981,-1363,6871,18559,-262,-31262,101.9476318359375,-1.439208984375,-171.727294921875,357,3.57,0
441,17603,1.154,47327,1154,2,0,1916,714,0.0,0.935546875,0.3486328125,-38,2,19,-2.3193359375,0.1220703125,1.15966796875,2315,-281,-4775,12813,-33,5573,70.3839111328125,-0.1812744140625,30.6134033203125,357,3.57,0
442,17604,1.159,47332,1159,0,-27,2025,-307,-0.01318359375,0.98876953125,-0.14990234375,7,-27,9,0.42724609375,-1.64794921875,0.54931640625,-4535,-2011,138,16018,939,-20731,87.989501953125,5.1580810546875,-113.8787841796875,350,3.5,0
443,17605,1.167,47340,1167,2,0,1916,716,0.0,0.935546875,0.349609375,-35,-4,20,-2.13623046875,-0.244140625,1.220703125,2318,-304,-4797,12813,-33,5570,70.3839111328125,-0.1812744140625,30.596923828125,357,3.57,0
444,17606,1.167,47340,1167,0,-26,2025,-312,-0.0126953125,0.98876953125,-0.15234375,6,-27,11,0.3662109375,-1.64794921875,0.67138671875,-4536,-2020,146,16016,941,-20733,87.978515625,5.1690673828125,-113.8897705078125,350,3.5,0
445,17607,1.167,47340,1167,1,43,1983,-442,0.02099609375,0.96826171875,-0.2158203125,20,2,-12,1.220703125,0.1220703125,-0.732421875,-986,-1362,6882,18563,-261,-31260,101.9696044921875,-1.4337158203125,-171.71630859375,357,3.57,0
446,17608,1.168,47341,1168,2,4,1917,717,0.001953125,0.93603515625,0.35009765625,-36,-5,17,-2.197265625,-0.30517578125,1.03759765625,2296,-265,-4797,12812,-33,5570,70.37841796875,-0.1812744140625,30.596923828125,358,3.58,0
447,17609,1.173,47346,1173,0,-26,2025,-312,-0.0126953125,0.98876953125,-0.15234375,6,-27,11,0.3662109375,-1.64794921875,0.67138671875,-4536,-2020,146,16016,941,-20733,87.978515625,5.1690673828125,-113.8897705078125,350,3.5,0
448,17610,1.183,47356,1183,1,47,1985,-440,0.02294921875,0.96923828125,-0.21484375,23,3,-11,1.40380859375,0.18310546875,-0.67138671875,-1001,-1344,6847,18564,-261,-31260,101.97509765625,-1.4337158203125,-171.71630859375,357,3.57,0
449,17611,1.183,47356,1183,2,7,1918,718,0.00341796875,0.9365234375,0.3505859375,-39,0,16,-2.38037109375,0.0,0.9765625,2280,-272,-4758,12812,-33,5567,70.37841796875,-0.1812744140625,30.5804443359375,358,3.58,0
450,17612,1.187,47360,1187,0,-17,2023,-309,-0.00830078125,0.98779296875,-0.15087890625,-1,-14,7,-0.06103515625,-0.8544921875,0.42724609375,-4544,-2027,209,16009,948,-20742,87.9400634765625,5.20751953125,-113.939208984375,350,3.5,0
451,17613,1.188,47361,1188,1,46,1997,-434,0.0224609375,0.97509765625,-0.2119140625,18,6,-13,1.0986328125,0.3662109375,-0.79345703125,-980,-1376,6843,18567,-259,-31256,101.9915771484375,-1.4227294921875,-171.6943359375,357,3.57,0
452,17614,1.189,47362,1189,2,5,1917,722,0.00244140625,0.93603515625,0.3525390625,-42,5,14,-2.5634765625,0.30517578125,0.8544921875,2293,-272,-4802,12810,-33,5567,70.367431640625,-0.1812744140625,30.5804443359375,358,3.58,0
453,17615,1.194,47367,1194,0,-15,2020,-307,-0.00732421875,0.986328125,-0.14990234375,4,-6,5,0.244140625,-0.3662109375,0.30517578125,-4528,-2023,234,16005,952,-20745,87.9180908203125,5.2294921875,-113.9556884765625,350,3.5,0
454,17616,1.196,47369,1196,2,3,1917,724,0.00146484375,0.93603515625,0.353515625,-41,3,14,-2.50244140625,0.18310546875,0.8544921875,2308,-254,-4805,12810,-33,5567,70.367431640625,-0.1812744140625,30.5804443359375,358,3.58,0
455,17617,1.201,47374,1201,0,-11,2025,-306,-0.00537109375,0.98876953125,-0.1494140625,10,-1,6,0.6103515625,-0.06103515625,0.3662109375,-4525,-2041,236,16004,954,-20747,87.91259765625,5.240478515625,-113.9666748046875,350,3.5,0
456,17618,1.202,47375,1202,1,48,1999,-422,0.0234375,0.97607421875,-0.2060546875,15,14,-14,0.91552734375,0.8544921875,-0.8544921875,-939,-1390,6855,18569,-258,-31252,102.0025634765625,-1.417236328125,-171.67236328125,357,3.57,0
457,17619,1.203,47376,1203,2,1,1918,726,0.00048828125,0.9365234375,0.3544921875,-37,-1,16,-2.25830078125,-0.06103515625,0.9765625,2312,-236,-4808,12810,-33,5563,70.367431640625,-0.1812744140625,30.5584716796875,359,3.59,0
458,17620,1.208,47381,1208,0,-5,2030,-300,-0.00244140625,0.9912109375,-0.146484375,13,2,7,0.79345703125,0.1220703125,0.42724609375,-4544,-2026,203,16003,956,-20748,87.9071044921875,5.25146484375,-113.97216796875,350,3.5,0
459,17621,1.209,47382,1209,1,43,2006,-424,0.02099609375,0.9794921875,-0.20703125,17,16,-13,1.03759765625,0.9765625,-0.79345703125,-950,-1380,6873,18570,-258,-31251,102.008056640625,-1.417236328125,-171.6668701171875,357,3.57,0
460,17622,1.21,47383,1210,2,1,1919,728,0.00048828125,0.93701171875,0.35546875,-29,-7,17,-1.77001953125,-0.42724609375,1.03759765625,2338,-244,-4835,12808,-33,5563,70.3564453125,-0.1812744140625,30.5584716796875,359,3.59,0
461,17623,1.215,47388,1215,0,-7,2034,-293,-0.00341796875,0.9931640625,-0.14306640625,16,4,9,0.9765625,0.244140625,0.54931640625,-4531,-2025,161,16002,959,-20750,87.901611328125,5.2679443359375,-113.983154296875,350,3.5,0
462,17624,1.217,47390,1217,2,3,1919,728,0.00146484375,0.93701171875,0.35546875,-30,-5,17,-1.8310546875,-0.30517578125,1.03759765625,2359,-248,-4802,12808,-33,5563,70.3564453125,-0.1812744140625,30.5584716796875,359,3.59,0
463,17625,1.222,47395,1222,0,-13,2035,-293,-0.00634765625,0.99365234375,-0.14306640625,16,10,9,0.9765625,0.6103515625,0.54931640625,-4506,-2040,138,16001,961,-20750,87.8961181640625,5.2789306640625,-113.983154296875,350,3.5,0
464,17626,1.223,47396,1223,1,32,2002,-421,0.015625,0.9775390625,-0.20556640625,6,2,-9,0.3662109375,0.1220703125,-0.54931640625,-983,-1392,6893,18571,-257,-31248,102.0135498046875,-1.4117431640625,-171.650390625,357,3.57,0
465,17627,1.224,47397,1224,2,3,1920,725,0.00146484375,0.9375,0.35400390625,-35,4,17,-2.13623046875,0.244140625,1.03759765625,2345,-257,-4812,12808,-33,5560,70.3564453125,-0.1812744140625,30.5419921875,359,3.59,0
466,17628,1.229,47402,1229,0,-13,2035,-293,-0.00634765625,0.99365234375,-0.14306640625,16,10,9,0.9765625,0.6103515625,0.54931640625,-4506,-2040,138,16001,961,-20750,87.8961181640625,5.2789306640625,-113.983154296875,350,3.5,0
467,17629,1.23,47403,1230,1,35,1993,-422,0.01708984375,0.97314453125,-0.2060546875,6,0,-3,0.3662109375,0.0,-0.18310546875,-996,-1377,6920,18572,-256,-31248,102.01904296875,-1.40625,-171.650390625,357,3.57,0
468,17630,1.231,47404,1231,2,1,1919,724,0.00048828125,0.93701171875,0.353515625,-39,8,16,-2.38037109375,0.48828125,0.9765625,2334,-255,-4832,12807,-33,5560,70.3509521484375,-0.1812744140625,30.5419921875,359,3.59,0
469,17631,1.236,47409,1236,0,-19,2040,-295,-0.00927734375,0.99609375,-0.14404296875,4,2,4,0.244140625,0.1220703125,0.244140625,-4500,-2022,173,15996,967,-20753,87.86865234375,5.3118896484375,-113.9996337890625,350,3.5,0
470,17632,1.245,47418,1245,2,0,1918,725,0.0,0.9365234375,0.35400390625,-38,10,16,-2.3193359375,0.6103515625,0.9765625,2331,-254,-4820,12807,-33,5560,70.3509521484375,-0.1812744140625,30.5419921875,359,3.59,0
471,17633,1.245,47418,1245,0,-20,2036,-292,-0.009765625,0.994140625,-0.142578125,0,-3,3,0.0,-0.18310546875,0.18310546875,-4510,-2026,168,15995,970,-20735,87.8631591796875,5.328369140625,-113.9007568359375,350,3.5,0
472,17634,1.245,47418,1245,1,29,1992,-426,0.01416015625,0.97265625,-0.2080078125,11,-11,-3,0.67138671875,-0.67138671875,-0.18310546875,-971,-1378,6870,18573,-256,-31247,102.0245361328125,-1.40625,-171.6448974609375,357,3.57,0
473,17635,1.245,47418,1245,2,-4,1916,729,-0.001953125,0.935546875,0.35595703125,-26,7,16,-1.5869140625,0.42724609375,0.9765625,2346,-244,-4819,12806,-33,5556,70.345458984375,-0.1812744140625,30.52001953125,358,3.58,0
474,17636,1.25,47423,1250,0,-18,2030,-288,-0.0087890625,0.9912109375,-0.140625,-7,-1,-2,-0.42724609375,-0.06103515625,-0.1220703125,-4537,-2024,126,16170,880,-20860,88.824462890625,4.833984375,-114.58740234375,350,3.5,0
475,17637,1.252,47425,1252,2,-5,1915,730,-0.00244140625,0.93505859375,0.3564453125,-17,-2,17,-1.03759765625,-0.1220703125,1.03759765625,2353,-243,-4808,12805,-33,5557,70.3399658203125,-0.1812744140625,30.5255126953125,358,3.58,0
476,17638,1.257,47430,1257,0,-20,2026,-292,-0.009765625,0.9892578125,-0.142578125,-10,1,0,-0.6103515625,0.06103515625,0.0,-4527,-2020,102,16170,880,-20860,88.824462890625,4.833984375,-114.58740234375,350,3.5,0
477,17639,1.258,47431,1258,1,30,1993,-431,0.0146484375,0.97314453125,-0.21044921875,15,-17,-2,0.91552734375,-1.03759765625,-0.1220703125,-955,-1364,6855,18602,-226,-31234,102.183837890625,-1.241455078125,-171.573486328125,357,3.57,0
478,17640,1.259,47432,1259,2,-3,1916,727,-0.00146484375,0.935546875,0.35498046875,-4,-4,18,-0.244140625,-0.244140625,1.0986328125,2324,-261,-4842,12805,-33,5553,70.3399658203125,-0.1812744140625,30.5035400390625,358,3.58,0
479,17641,1.264,47437,1264,0,-20,2026,-292,-0.009765625,0.9892578125,-0.142578125,-10,1,0,-0.6103515625,0.06103515625,0.0,-4527,-2020,102,16170,880,-20860,88.824462890625,4.833984375,-114.58740234375,350,3.5,0
480,17642,1.265,47438,1265,1,28,1995,-432,0.013671875,0.97412109375,-0.2109375,17,-17,-4,1.03759765625,-1.03759765625,-0.244140625,-964,-1370,6838,18602,-226,-31246,102.183837890625,-1.241455078125,-171.639404296875,357,3.57,0
481,17643,1.266,47439,1266,2,0,1918,723,0.0,0.9365234375,0.35302734375,-5,-2,17,-0.30517578125,-0.1220703125,1.03759765625,2326,-244,-4823,12805,-33,5553,70.3399658203125,-0.1812744140625,30.5035400390625,358,3.58,0
482,17644,1.271,47444,1271,0,-20,2020,-291,-0.009765625,0.986328125,-0.14208984375,-8,18,3,-0.48828125,1.0986328125,0.18310546875,-4520,-2058,154,16190,872,-20855,88.934326171875,4.7900390625,-114.5599365234375,350,3.5,0
483,17645,1.273,47446,1273,2,3,1920,720,0.00146484375,0.9375,0.3515625,-8,0,14,-0.48828125,0.0,0.8544921875,2293,-251,-4813,12803,-33,5553,70.3289794921875,-0.1812744140625,30.5035400390625,358,3.58,0
484,17646,1.278,47451,1278,0,-23,2016,-295,-0.01123046875,0.984375,-0.14404296875,-2,24,3,-0.1220703125,1.46484375,0.18310546875,-4542,-2056,150,16190,872,-20855,88.934326171875,4.7900390625,-114.5599365234375,350,3.5,0
485,17647,1.279,47452,1279,1,33,1992,-435,0.01611328125,0.97265625,-0.21240234375,10,-18,-6,0.6103515625,-1.0986328125,-0.3662109375,-972,-1387,6839,18604,-220,-31244,102.19482421875,-1.20849609375,-171.62841796875,357,3.57,0
486,17648,1.28,47453,1280,2,5,1921,717,0.00244140625,0.93798828125,0.35009765625,-11,10,15,-0.67138671875,0.6103515625,0.91552734375,2294,-255,-4829,12803,-33,5550,70.3289794921875,-0.1812744140625,30.487060546875,357,3.57,0
487,17649,1.285,47458,1285,0,-30,2021,-298,-0.0146484375,0.98681640625,-0.1455078125,4,27,8,0.244140625,1.64794921875,0.48828125,-4557,-2046,162,16189,874,-20836,88.9288330078125,4.801025390625,-114.45556640625,350,3.5,0
488,17650,1.287,47460,1287,2,6,1922,716,0.0029296875,0.9384765625,0.349609375,-12,11,13,-0.732421875,0.67138671875,0.79345703125,2292,-247,-4823,12803,-33,5550,70.3289794921875,-0.1812744140625,30.487060546875,357,3.57,0
489,17651,1.292,47465,1292,0,-31,2021,-302,-0.01513671875,0.98681640625,-0.1474609375,6,25,9,0.3662109375,1.52587890625,0.54931640625,-4552,-2037,179,16201,867,-20845,88.9947509765625,4.7625732421875,-114.5050048828125,350,3.5,0
490,17652,1.293,47466,1293,1,30,1991,-439,0.0146484375,0.97216796875,-0.21435546875,19,-23,-12,1.15966796875,-1.40380859375,-0.732421875,-969,-1394,6865,18606,-216,-31247,102.205810546875,-1.1865234375,-171.6448974609375,357,3.57,0
491,17653,1.294,47467,1294,2,3,1920,715,0.00146484375,0.9375,0.34912109375,-12,9,13,-0.732421875,0.54931640625,0.79345703125,2314,-245,-4798,12801,-32,5550,70.3179931640625,-0.17578125,30.487060546875,357,3.57,0
492,17654,1.299,47472,1299,0,-31,2021,-302,-0.01513671875,0.98681640625,-0.1474609375,6,25,9,0.3662109375,1.52587890625,0.54931640625,-4552,-2037,179,16201,867,-20845,88.9947509765625,4.7625732421875,-114.5050048828125,350,3.5,0
493,17655,1.308,47481,1308,2,1,1919,715,0.00048828125,0.93701171875,0.34912109375,-9,7,14,-0.54931640625,0.42724609375,0.8544921875,2315,-243,-4768,12801,-32,5546,70.3179931640625,-0.17578125,30.465087890625,357,3.57,0
494,17656,1.308,47481,1308,0,-35,2022,-308,-0.01708984375,0.9873046875,-0.150390625,10,16,12,0.6103515625,0.9765625,0.732421875,-4546,-1981,137,16200,870,-20826,88.9892578125,4.779052734375,-114.400634765625,350,3.5,0
495,17657,1.309,47482,1309,1,33,1989,-437,0.01611328125,0.97119140625,-0.21337890625,16,-28,-12,0.9765625,-1.708984375,-0.732421875,-969,-1379,6888,18606,-216,-31254,102.205810546875,-1.1865234375,-171.683349609375,357,3.57,0
496,17658,1.309,47482,1309,2,0,1917,714,0.0,0.93603515625,0.3486328125,-8,6,13,-0.48828125,0.3662109375,0.79345703125,2294,-241,-4769,12801,-32,5546,70.3179931640625,-0.17578125,30.465087890625,357,3.57,0
497,17659,1.313,47486,1313,0,-42,2026,-309,-0.0205078125,0.9892578125,-0.15087890625,11,12,12,0.67138671875,0.732421875,0.732421875,-4577,-1968,149,16211,864,-20834,89.0496826171875,4.74609375,-114.444580078125,350,3.5,0
498,17660,1.315,47488,1315,2,0,1916,714,0.0,0.935546875,0.3486328125,-13,11,12,-0.79345703125,0.67138671875,0.732421875,2309,-268,-4770,12800,-32,5546,70.3125,-0.17578125,30.465087890625,357,3.57,0
499,17661,1.32,47493,1320,0,-48,2025,-317,-0.0234375,0.98876953125,-0.15478515625,9,-2,13,0.54931640625,-0.1220703125,0.79345703125,-4577,-1970,132,16210,867,-20814,89.044189453125,4.7625732421875,-114.334716796875,350,3.5,0
500,17662,1.321,47494,1321,1,38,1983,-440,0.0185546875,0.96826171875,-0.21484375,14,-28,-13,0.8544921875,-1.708984375,-0.79345703125,-1004,-1377,6893,18608,-213,-31253,102.216796875,-1.1700439453125,-171.6778564453125,357,3.57,0
501,17663,1.322,47495,1322,2,1,1917,715,0.00048828125,0.93603515625,0.34912109375,-15,15,11,-0.91552734375,0.91552734375,0.67138671875,2333,-259,-4771,12800,-32,5543,70.3125,-0.17578125,30.4486083984375,357,3.57,0
502,17664,1.327,47500,1327,0,-48,2029,-322,-0.0234375,0.99072265625,-0.1572265625,7,-7,12,0.42724609375,-0.42724609375,0.732421875,-4587,-1988,102,16210,867,-20814,89.044189453125,4.7625732421875,-114.334716796875,350,3.5,0
503,17665,1.329,47502,1329,2,3,1917,717,0.00146484375,0.93603515625,0.35009765625,-17,15,10,-1.03759765625,0.91552734375,0.6103515625,2362,-250,-4789,12800,-32,5543,70.3125,-0.17578125,30.4486083984375,357,3.57,0
504,17666,1.334,47507,1334,0,-49,2028,-321,-0.02392578125,0.990234375,-0.15673828125,2,-12,7,0.1220703125,-0.732421875,0.42724609375,-4587,-1984,97,16219,862,-20821,89.0936279296875,4.735107421875,-114.3731689453125,350,3.5,0
505,17667,1.335,47508,1335,1,48,1987,-440,0.0234375,0.97021484375,-0.21484375,23,-30,-13,1.40380859375,-1.8310546875,-0.79345703125,-1012,-1365,6892,18611,-212,-31252,102.2332763671875,-1.16455078125,-171.67236328125,357,3.57,0
506,17668,1.336,47509,1336,2,6,1918,724,0.0029296875,0.9365234375,0.353515625,-13,16,10,-0.79345703125,0.9765625,0.6103515625,2372,-236,-4732,12798,-32,5543,70.301513671875,-0.17578125,30.4486083984375,357,3.57,0
507,17669,1.341,47514,1341,0,-54,2019,-326,-0.0263671875,0.98583984375,-0.1591796875,-2,-24,4,-0.1220703125,-1.46484375,0.244140625,-4582,-1977,135,16219,864,-20801,89.0936279296875,4.74609375,-114.2633056640625,349,3.49,0
508,17670,1.343,47516,1343,2,7,1919,726,0.00341796875,0.93701171875,0.3544921875,-11,11,8,-0.67138671875,0.67138671875,0.48828125,2368,-224,-4715,12798,-32,5541,70.301513671875,-0.17578125,30.4376220703125,357,3.57,0
509,17671,1.348,47521,1348,0,-52,2018,-329,-0.025390625,0.9853515625,-0.16064453125,4,-22,4,0.244140625,-1.3427734375,0.244140625,-4596,-1955,132,16219,864,-20801,89.0936279296875,4.74609375,-114.2633056640625,349,3.49,0
510,17672,1.35,47523,1350,2,8,1921,727,0.00390625,0.93798828125,0.35498046875,-9,8,7,-0.54931640625,0.48828125,0.42724609375,2346,-240,-4716,12796,-32,5541,70.29052734375,-0.17578125,30.4376220703125,357,3.57,0
511,17673,1.355,47528,1355,0,-47,2016,-331,-0.02294921875,0.984375,-0.16162109375,11,-23,3,0.67138671875,-1.40380859375,0.18310546875,-4597,-1973,118,16228,860,-20807,89.14306640625,4.72412109375,-114.2962646484375,349,3.49,0
512,17674,1.369,47542,1369,1,49,1998,-444,0.02392578125,0.9755859375,-0.216796875,25,-26,-8,1.52587890625,-1.5869140625,-0.48828125,-998,-1394,6841,18614,-213,-31247,102.249755859375,-1.1700439453125,-171.6448974609375,356,3.56,0
513,17675,1.369,47542,1369,2,9,1919,724,0.00439453125,0.93701171875,0.353515625,-4,12,6,-0.244140625,0.732421875,0.3662109375,2330,-297,-4786,12796,-32,5538,70.29052734375,-0.17578125,30.421142578125,357,3.57,0
514,17676,1.37,47543,1370,0,-41,2014,-326,-0.02001953125,0.9833984375,-0.1591796875,13,-31,3,0.79345703125,-1.89208984375,0.18310546875,-4590,-1937,194,16227,862,-20788,89.1375732421875,4.735107421875,-114.19189453125,349,3.49,0
515,17677,1.371,47544,1371,2,7,1917,723,0.00341796875,0.93603515625,0.35302734375,-2,17,7,-0.1220703125,1.03759765625,0.42724609375,2328,-339,-4803,12795,-32,5538,70.2850341796875,-0.17578125,30.421142578125,357,3.57,0
516,17678,1.376,47549,1376,0,-31,2011,-311,-0.01513671875,0.98193359375,-0.15185546875,9,-38,1,0.54931640625,-2.3193359375,0.06103515625,-4581,-1977,218,16237,857,-20794,89.1925048828125,4.7076416015625,-114.224853515625,349,3.49,0
517,17679,1.378,47551,1378,2,4,1917,722,0.001953125,0.93603515625,0.3525390625,-3,17,6,-0.18310546875,1.03759765625,0.3662109375,2335,-323,-4761,12795,-32,5538,70.2850341796875,-0.17578125,30.421142578125,357,3.57,0
518,17680,1.383,47556,1383,0,-27,2014,-307,-0.01318359375,0.9833984375,-0.14990234375,8,-31,3,0.48828125,-1.89208984375,0.18310546875,-4573,-1982,217,16236,860,-20776,89.18701171875,4.72412109375,-114.1259765625,349,3.49,0
519,17681,1.385,47558,1385,2,-2,1917,721,-0.0009765625,0.93603515625,0.35205078125,-10,15,9,-0.6103515625,0.91552734375,0.54931640625,2338,-289,-4784,12795,-32,5536,70.2850341796875,-0.17578125,30.41015625,357,3.57,0
520,17682,1.39,47563,1390,0,-27,2014,-307,-0.01318359375,0.9833984375,-0.14990234375,8,-31,3,0.48828125,-1.89208984375,0.18310546875,-4573,-1982,217,16236,860,-20776,89.18701171875,4.72412109375,-114.1259765625,349,3.49,0
521,17683,1.391,47564,1391,1,33,1997,-431,0.01611328125,0.97509765625,-0.21044921875,29,-5,-3,1.77001953125,-0.30517578125,-0.18310546875,-1021,-1367,6868,18617,-213,-31244,102.2662353515625,-1.1700439453125,-171.62841796875,355,3.55,0
522,17684,1.392,47565,1392,2,-4,1917,721,-0.001953125,0.93603515625,0.35205078125,-12,11,10,-0.732421875,0.67138671875,0.6103515625,2344,-269,-4822,12793,-32,5536,70.2740478515625,-0.17578125,30.41015625,357,3.57,0
523,17685,1.397,47570,1397,0,-28,2019,-312,-0.013671875,0.98583984375,-0.15234375,9,-19,4,0.54931640625,-1.15966796875,0.244140625,-4549,-1981,192,16246,855,-20782,89.241943359375,4.6966552734375,-114.158935546875,349,3.49,0
524,17686,1.399,47572,1399,2,-5,1916,722,-0.00244140625,0.935546875,0.3525390625,-12,6,11,-0.732421875,0.3662109375,0.67138671875,2354,-269,-4811,12793,-32,5536,70.2740478515625,-0.17578125,30.41015625,357,3.57,0
525,17687,1.404,47577,1404,0,-26,2022,-312,-0.0126953125,0.9873046875,-0.15234375,10,-17,7,0.6103515625,-1.03759765625,0.42724609375,-4574,-1978,199,16245,857,-20764,89.2364501953125,4.7076416015625,-114.06005859375,349,3.49,0
526,17688,1.406,47579,1406,2,-6,1918,725,-0.0029296875,0.9365234375,0.35400390625,-7,-3,14,-0.42724609375,-0.18310546875,0.8544921875,2378,-263,-4824,12793,-32,5533,70.2740478515625,-0.17578125,30.3936767578125,357,3.57,0
527,17689,1.411,47584,1411,0,-26,2024,-320,-0.0126953125,0.98828125,-0.15625,6,-15,8,0.3662109375,-0.91552734375,0.48828125,-4571,-1975,189,16255,852,-20770,89.2913818359375,4.68017578125,-114.093017578125,349,3.49,0
528,17690,1.413,47586,1413,2,-5,1920,725,-0.00244140625,0.9375,0.35400390625,-9,-8,14,-0.54931640625,-0.48828125,0.8544921875,2374,-241,-4798,12791,-32,5533,70.2630615234375,-0.17578125,30.3936767578125,357,3.57,0
529,17691,1.418,47591,1418,0,-28,2026,-320,-0.013671875,0.9892578125,-0.15625,5,-22,6,0.30517578125,-1.3427734375,0.3662109375,-4585,-1980,188,16255,852,-20770,89.2913818359375,4.68017578125,-114.093017578125,348,3.48,0
530,17692,1.426,47599,1426,2,0,1922,726,0.0,0.9384765625,0.3544921875,-10,-1,13,-0.6103515625,-0.06103515625,0.79345703125,2370,-227,-4797,12791,-32,5530,70.2630615234375,-0.17578125,30.377197265625,357,3.57,0
531,17693,1.426,47599,1426,0,-28,2026,-320,-0.013671875,0.9892578125,-0.15625,5,-22,6,0.30517578125,-1.3427734375,0.3662109375,-4585,-1980,188,16255,852,-20770,89.2913818359375,4.68017578125,-114.093017578125,348,3.48,0
532,17694,1.426,47599,1426,1,16,1996,-439,0.0078125,0.974609375,-0.21435546875,6,-8,-13,0.3662109375,-0.48828125,-0.79345703125,-961,-1334,6927,18617,-210,-31245,102.2662353515625,-1.153564453125,-171.6339111328125,354,3.54,0
533,17695,1.427,47600,1427,2,2,1922,726,0.0009765625,0.9384765625,0.3544921875,-10,0,11,-0.6103515625,0.0,0.67138671875,2363,-234,-4801,12791,-32,5530,70.2630615234375,-0.17578125,30.377197265625,357,3.57,0
534,17696,1.432,47605,1432,0,-23,2023,-314,-0.01123046875,0.98779296875,-0.1533203125,-3,-31,9,-0.18310546875,-1.89208984375,0.54931640625,-4582,-2008,133,16263,849,-20758,89.3353271484375,4.6636962890625,-114.027099609375,348,3.48,0
